imageSetLvl,imageSetName,refSetNumber,trials_2.thisRepN,trials_2.thisTrialN,trials_2.thisN,trials_2.thisIndex,trials.thisRepN,trials.thisTrialN,trials.thisN,trials.thisIndex,text.started,text.stopped,text_3.started,text_3.stopped,image.started,image.stopped,Trial No.,Comp Side,Ref Num,Level List,Bounce Num,Staircase,Scene No,comp>ref?,leftImagePortrait.started,leftImagePortrait.stopped,ISI.started,ISI.stopped,rightImagePortrait.started,rightImagePortrait.stopped,text_2.started,text_2.stopped,resp.keys,resp.rt,resp.started,resp.stopped,ISI_2.started,ISI_2.stopped,text_4.started,text_4.stopped,participant,date,expName,psychopyVersion,frameRate,
decanterStudio,decanterStudio,7,0,0,0,0,0,0,0,0,14.763742700219154,None,16.12300129979849,17.143282500095665,17.13535000011325,None,1,-1,7,0,0,1,2,0,21.74855630006641,24.256017500068992,0.011561529710888863,0.5115615297108889,24.44399969978258,None,None,None,right,3.8713604998774827,21.25633420003578,None,3.005336629692465,3.2053366296924652,,,,2021_May_18_1418,InterleavedStaircase,2020.2.10,59.79159046023103,
decanterStudio,decanterStudio,7,0,0,0,0,1,0,1,0,,,,,,,1,-1,7,21,21,0,1,1,25.833934899885207,28.33622660022229,0.009039680007845163,0.5090396800078452,28.524935699999332,31.033930900041014,31.033930900041014,None,left,5.945861499756575,25.338756199926138,None,3.000403679907322,3.200403679907322,,,,2021_May_18_1418,InterleavedStaircase,2020.2.10,59.79159046023103,
decanterStudio,decanterStudio,7,0,0,0,0,2,0,2,0,,,,,,,2,1,7,18.375,18,0,1,1,31.98847070010379,34.49750090017915,0.011637379880994558,0.5116373798809946,34.68461850006133,37.19576970022172,37.18385750008747,None,right,6.151631900109351,31.495758700184524,None,3.0077257798984647,3.207725779898465,,,,2021_May_18_1418,InterleavedStaircase,2020.2.10,59.79159046023103,
decanterStudio,decanterStudio,7,0,0,0,0,3,0,3,0,,,,,,,1,-1,7,0,0,1,1,0,38.34551650006324,40.84242110000923,0.016287979669868946,0.516287979669869,41.03076059976593,43.54064430017024,43.54064430017024,None,right,5.994245399720967,37.851533100008965,None,3.0005806796252728,3.200580679625273,,,,2021_May_18_1418,InterleavedStaircase,2020.2.10,59.79159046023103,
decanterStudio,decanterStudio,7,0,0,0,0,4,0,4,0,,,,,,,2,-1,7,2.625,3,1,2,0,44.65806609997526,47.154094900004566,0.0014934195205569267,0.5014934195205569,47.35563110001385,49.85247270017862,49.85247270017862,None,right,5.979908800218254,44.16264470014721,None,3.0006913198158145,3.2006913198158147,,,,2021_May_18_1418,InterleavedStaircase,2020.2.10,59.79159046023103,
decanterStudio,decanterStudio,7,0,0,0,0,5,0,5,0,,,,,,,3,-1,7,15.75,16,0,1,0,50.83336899988353,53.332044899929315,0.002601389307528734,0.5026013893075287,53.53178879991174,56.030202500056475,56.030202500056475,None,right,6.015230899676681,50.339269699994475,None,3.0026161894202232,3.2026161894202234,,,,2021_May_18_1418,InterleavedStaircase,2020.2.10,59.79159046023103,
decanterStudio,decanterStudio,7,0,0,0,0,6,0,6,0,,,,,,,1,-1,7,21,21,0,2,1,57.04583550011739,59.54419399984181,0.0010083899833261967,0.5010083899833262,59.74572240002453,62.241666099987924,62.241666099987924,None,left,6.043206099886447,56.55223789997399,None,3.000347590073943,3.2003475900739433,,,,2021_May_18_1418,InterleavedStaircase,2020.2.10,59.79159046023103,
decanterStudio,decanterStudio,7,0,0,0,0,7,0,7,0,,,,,,,3,1,7,4.375,4,1,2,0,63.29219269985333,65.78885590005666,0.01581497909501195,0.515814979095012,65.9772809999995,68.48630549991503,68.48630549991503,None,left,5.950777399819344,62.79806989990175,None,3.0012832791544497,3.20128327915445,,,,2021_May_18_1418,InterleavedStaircase,2020.2.10,59.79159046023103,
decanterStudio,decanterStudio,7,0,0,0,0,8,0,8,0,,,,,,,4,-1,7,16.333333333333332,16,0,1,1,69.43655860004947,71.93390570022166,0.014559079427272081,0.5145590794272721,72.13311919989064,None,None,None,left,5.034397900104523,68.94366239989176,None,3.01096307951957,3.21096307951957,,,,2021_May_18_1418,InterleavedStaircase,2020.2.10,59.79159046023103,
decanterStudio,decanterStudio,7,0,0,0,0,9,0,9,0,,,,,,,2,-1,7,18.375,18,0,2,1,74.67242999980226,77.17961339978501,0.013433880172669888,0.5134338801726699,77.36828149994835,None,None,None,left,3.8367215003818274,74.17699320008978,None,3.009157579857856,3.209157579857856,,,,2021_May_18_1418,InterleavedStaircase,2020.2.10,59.79159046023103,
decanterStudio,decanterStudio,7,0,0,0,0,10,0,10,0,,,,,,,5,1,7,15.020833333333332,15,0,1,1,78.71013549994677,81.20953960018232,0.005764779634773731,0.5057647796347737,81.40870589995757,None,None,None,right,3.7261701999232173,78.21609919983894,None,3.0053693796508014,3.2053693796508016,,,,2021_May_18_1418,InterleavedStaircase,2020.2.10,59.79159046023103,
decanterStudio,decanterStudio,7,0,0,0,0,11,0,11,0,,,,,,,2,1,7,2.625,3,1,1,0,82.63147250004113,85.13975289976224,0.014315979555249214,0.5143159795552492,85.32606799993664,None,None,None,left,3.909551799762994,82.1378031000495,None,3.0099217793904245,3.2099217793904247,,,,2021_May_18_1418,InterleavedStaircase,2020.2.10,59.79159046023103,
decanterStudio,decanterStudio,7,0,0,0,0,12,0,12,0,,,,,,,3,1,7,3.9375,4,1,1,0,86.74356690002605,89.25280730007216,0.015686579514294863,0.5156865795142949,89.44133719988167,None,None,None,left,3.781905500218272,86.24890139978379,None,3.0125677795149386,3.2125677795149388,,,,2021_May_18_1418,InterleavedStaircase,2020.2.10,59.79159046023103,
decanterStudio,decanterStudio,7,0,0,0,0,13,0,13,0,,,,,,,4,1,7,5.6875,6,1,2,0,90.71808050014079,93.21615399979055,0.004810089711099863,0.5048100897110999,93.41808950016275,None,None,None,left,4.051274999976158,90.22476310003549,None,3.0029474897310138,3.202947489731014,,,,2021_May_18_1418,InterleavedStaircase,2020.2.10,59.79159046023103,
decanterStudio,decanterStudio,7,0,0,0,0,14,0,14,0,,,,,,,4,-1,7,5.25,5,1,1,0,94.97127339988947,97.47942870017141,0.014655080158263445,0.5146550801582634,97.6673737000674,None,None,None,right,4.338204199913889,94.4766997997649,None,3.0111438799649477,3.211143879964948,,,,2021_May_18_1418,InterleavedStaircase,2020.2.10,59.79159046023103,
decanterStudio,decanterStudio,7,0,0,0,0,15,0,15,0,,,,,,,5,1,7,7.0,7,1,2,1,99.50403380021453,102.00899400003254,0.012286379467695951,0.512286379467696,102.19521650020033,None,None,None,right,4.604393800254911,99.0100012999028,None,3.005734079517424,3.2057340795174243,,,,2021_May_18_1418,InterleavedStaircase,2020.2.10,59.79159046023103,
decanterStudio,decanterStudio,7,0,0,0,0,16,0,16,0,,,,,,,6,1,7,13.970833333333331,14,0,1,1,104.33914079982787,106.83856539987028,0.008170370012521744,0.5081703700125217,107.03783849999309,None,None,None,right,3.7125594997778535,103.84317510016263,None,3.010235169902444,3.210235169902444,,,,2021_May_18_1418,InterleavedStaircase,2020.2.10,59.79159046023103,
decanterStudio,decanterStudio,7,0,0,0,0,17,0,17,0,,,,,,,3,-1,7,17.325,17,0,2,1,108.24317529983819,110.75198089983314,0.014824979938566685,0.5148249799385667,110.9394336999394,None,None,None,left,3.856094100046903,107.75026529980823,None,3.009991880040616,3.209991880040616,,,,2021_May_18_1418,InterleavedStaircase,2020.2.10,59.79159046023103,
decanterStudio,decanterStudio,7,0,0,0,0,18,0,18,0,,,,,,,7,1,7,12.92083333333333,13,0,1,0,112.30825959984213,114.81583449989557,0.012566769495606422,0.5125667694956064,115.00303449993953,None,None,None,left,3.586338800378144,111.81545609980822,None,3.00674556940794,3.20674556940794,,,,2021_May_18_1418,InterleavedStaircase,2020.2.10,59.79159046023103,
decanterStudio,decanterStudio,7,0,0,0,0,19,0,19,0,,,,,,,6,1,7,6.708333333333333,7,1,2,1,116.0706683001481,118.5791289000772,0.013515989761799574,0.5135159897617996,118.76713490020484,None,None,None,right,3.777051500044763,115.57691030018032,None,3.007945189718157,3.2079451897181572,,,,2021_May_18_1418,InterleavedStaircase,2020.2.10,59.79159046023103,
decanterStudio,decanterStudio,7,0,0,0,0,20,0,20,0,,,,,,,5,-1,7,6.125,6,1,1,1,120.05004480015486,122.55854230001569,0.013381179887801409,0.5133811798878014,122.74577869987115,None,None,None,left,4.309767399914563,119.55782879982144,None,3.0080678798258305,3.2080678798258306,,,,2021_May_18_1418,InterleavedStaircase,2020.2.10,59.79159046023103,
decanterStudio,decanterStudio,7,0,0,0,0,21,0,21,0,,,,,,,7,1,7,6.458333333333333,6,1,2,1,124.55227020010352,127.05515389982611,0.0075749889947474,0.5075749889947474,127.25634009996429,None,None,None,right,4.146505400072783,124.05917079979554,None,3.009684889111668,3.209684889111668,,,,2021_May_18_1418,InterleavedStaircase,2020.2.10,59.79159046023103,
decanterStudio,decanterStudio,7,0,0,0,0,22,0,22,0,,,,,,,8,1,7,6.208333333333333,6,1,2,0,128.88784210011363,131.38507500011474,0.0031728893518447876,0.5031728893518448,131.58688820013776,None,None,None,left,3.727394300047308,128.39388100011274,None,3.0003080894239247,3.200308089423925,,,,2021_May_18_1418,InterleavedStaircase,2020.2.10,59.79159046023103,
decanterStudio,decanterStudio,7,0,0,0,0,23,0,23,0,,,,,,,6,1,7,5.90625,6,1,1,0,132.7975504999049,135.29837140021846,0.0055408901534974575,0.5055408901534975,135.4989724000916,None,None,None,left,3.946606199722737,132.3048284999095,None,3.0049982899799943,3.2049982899799945,,,,2021_May_18_1418,InterleavedStaircase,2020.2.10,59.79159046023103,
decanterStudio,decanterStudio,7,0,0,0,0,24,0,24,0,,,,,,,7,1,7,6.489583333333333,6,1,1,0,136.9347306001,139.4448794000782,0.00027728965505957603,0.5002772896550596,139.64555179979652,None,None,None,left,4.091794000007212,136.44083179999143,None,3.0107792895287275,3.2107792895287277,,,,2021_May_18_1418,InterleavedStaircase,2020.2.10,59.79159046023103,
decanterStudio,decanterStudio,7,0,0,0,0,25,0,25,0,,,,,,,4,-1,7,16.741666666666667,17,0,2,1,141.2064829999581,143.70810130005702,0.005793789867311716,0.5057937898673117,143.91015180014074,None,None,None,left,3.949304400011897,140.71426159981638,None,3.0057373899035156,3.2057373899035158,,,,2021_May_18_1418,InterleavedStaircase,2020.2.10,59.79159046023103,
decanterStudio,decanterStudio,7,0,0,0,0,26,0,26,0,,,,,,,8,-1,7,7.072916666666666,7,1,1,0,145.3664290001616,147.87151720002294,0.009771679528057575,0.5097716795280576,148.05844150017947,None,None,None,right,3.9191423999145627,144.87422350002453,None,3.0004496797919273,3.2004496797919275,,,,2021_May_18_1418,InterleavedStaircase,2020.2.10,59.79159046023103,
decanterStudio,decanterStudio,7,0,0,0,0,27,0,27,0,,,,,,,8,1,7,13.115277777777775,13,0,1,1,149.47331300005317,151.98483419977129,0.00054568937048316,0.5005456893704832,152.17377830017358,None,None,None,right,5.5442303000018,148.97989240009338,None,2.9993660897016525,3.1993660897016527,,,,2021_May_18_1418,InterleavedStaircase,2020.2.10,59.79159046023103,
decanterStudio,decanterStudio,7,0,0,0,0,28,0,28,0,,,,,,,9,-1,7,12.590277777777775,13,0,1,1,155.2225541002117,157.73012220021337,0.012114979792386293,0.5121149797923863,157.91675500012934,None,None,None,left,4.128006599843502,154.73079260019585,None,3.005519979633391,3.205519979633391,,,,2021_May_18_1418,InterleavedStaircase,2020.2.10,59.79159046023103,
decanterStudio,decanterStudio,7,0,0,0,0,29,0,29,0,,,,,,,9,1,7,6.7333333333333325,7,1,2,0,159.53607700020075,162.04295800020918,0.01240718923509121,0.5124071892350912,162.23075939994305,None,None,None,left,3.8617186998017132,159.04274840001017,None,3.00674208952114,3.20674208952114,,,,2021_May_18_1418,InterleavedStaircase,2020.2.10,59.79159046023103,
decanterStudio,decanterStudio,7,0,0,0,0,30,0,30,0,,,,,,,10,1,7,12.065277777777775,12,0,1,1,163.61125590000302,166.1068971999921,0.000844279769808054,0.500844279769808,166.3245883998461,None,None,None,right,3.7661910001188517,163.1173090999946,None,3.0136852795258164,3.2136852795258166,,,,2021_May_18_1418,InterleavedStaircase,2020.2.10,59.79159046023103,
decanterStudio,decanterStudio,7,0,0,0,0,31,0,31,0,,,,,,,10,-1,7,7.258333333333333,7,1,2,1,167.61592609994113,170.1198641997762,0.00949756009504199,0.509497560095042,170.30778180016205,None,None,None,left,3.831861199811101,167.1239403001964,None,3.0003245598636568,3.200324559863657,,,,2021_May_18_1418,InterleavedStaircase,2020.2.10,59.79159046023103,
decanterStudio,decanterStudio,7,0,0,0,0,32,0,32,0,,,,,,,11,-1,7,11.588005050505048,12,0,1,1,171.62862409977242,174.13285940000787,0.008511089719831944,0.5085110897198319,174.33288169978186,None,None,None,left,3.853023999836296,171.1379402000457,None,3.01082398975268,3.2108239897526802,,,,2021_May_18_1418,InterleavedStaircase,2020.2.10,59.79159046023103,
decanterStudio,decanterStudio,7,0,0,0,0,33,0,33,0,,,,,,,9,-1,7,7.550189393939394,8,1,1,1,175.68684849981219,178.19632219988853,0.01583037944510579,0.5158303794451058,178.38370710005984,None,None,None,left,3.905024599749595,175.19275629986078,None,3.012703479733318,3.2127034797333183,,,,2021_May_18_1418,InterleavedStaircase,2020.2.10,59.79159046023103,
decanterStudio,decanterStudio,7,0,0,0,0,34,0,34,0,,,,,,,12,-1,7,11.150505050505048,11,0,1,0,179.78696820000187,182.29283030005172,0.014538879971951246,0.5145388799719512,182.4809948001057,None,None,None,right,4.122684400063008,179.2919450001791,None,3.0091765797697008,3.209176579769701,,,,2021_May_18_1418,InterleavedStaircase,2020.2.10,59.79159046023103,
decanterStudio,decanterStudio,7,0,0,0,0,35,0,35,0,,,,,,,13,1,7,11.285120435120433,11,0,1,1,184.08620439982042,186.58945500012487,0.009701789822429419,0.5097017898224294,186.7754891999066,None,None,None,right,3.691232900135219,183.59258549986407,None,3.0001489901915193,3.2001489901915194,,,,2021_May_18_1418,InterleavedStaircase,2020.2.10,59.79159046023103,
decanterStudio,decanterStudio,7,0,0,0,0,36,0,36,0,,,,,,,10,1,7,7.425189393939394,7,1,1,0,187.96972690010443,190.47009690012783,0.0063341897912323475,0.5063341897912323,190.67055650008842,None,None,None,left,3.7208066997118294,187.47686150018126,None,3.0068355901166797,3.20683559011668,,,,2021_May_18_1418,InterleavedStaircase,2020.2.10,59.79159046023103,
decanterStudio,decanterStudio,7,0,0,0,0,37,0,37,0,,,,,,,5,1,7,16.391666666666666,16,0,2,1,191.8898219000548,194.39990800013766,0.015377979725599289,0.5153779797255993,194.5883663999848,None,None,None,right,3.7672278000973165,191.39639549981803,None,3.012510879896581,3.2125108798965814,,,,2021_May_18_1418,InterleavedStaircase,2020.2.10,59.79159046023103,
decanterStudio,decanterStudio,7,0,0,0,0,38,0,38,0,,,,,,,11,-1,7,7.775189393939393,8,1,1,1,195.85057369992137,198.34652579994872,0.0017864895053207874,0.5017864895053208,198.5644478998147,None,None,None,left,3.9746241001412272,195.3562076999806,None,3.014792389702052,3.214792389702052,,,,2021_May_18_1418,InterleavedStaircase,2020.2.10,59.79159046023103,
decanterStudio,decanterStudio,7,0,0,0,0,39,0,39,0,,,,,,,14,1,7,10.956995435120433,11,0,1,1,200.01616539992392,202.5267679002136,0.0005655898712575436,0.5005655898712575,202.71519300015643,None,None,None,right,3.7007698002271354,199.52138949977234,None,3.0002543898299336,3.200254389829934,,,,2021_May_18_1418,InterleavedStaircase,2020.2.10,59.79159046023103,
decanterStudio,decanterStudio,7,0,0,0,0,40,0,40,0,,,,,,,12,1,7,7.665814393939393,8,1,1,1,203.90793700003996,206.40659399982542,0.0038288901560008526,0.5038288901560009,206.6062675002031,None,None,None,right,4.158092999830842,203.41531280009076,None,3.0009856899268925,3.2009856899268927,,,,2021_May_18_1418,InterleavedStaircase,2020.2.10,59.79159046023103,
decanterStudio,decanterStudio,7,0,0,0,0,41,0,41,0,,,,,,,11,-1,7,7.148958333333333,7,1,2,0,208.25281239999458,210.75279169995338,0.00818458991125226,0.5081845899112523,210.95430279988796,None,None,None,right,4.951552900020033,207.75821179989725,None,3.0091930897906423,3.2091930897906424,,,,2021_May_18_1418,InterleavedStaircase,2020.2.10,59.79159046023103,
decanterStudio,decanterStudio,7,0,0,0,0,42,0,42,0,,,,,,,13,1,7,7.562873217468805,8,1,1,0,213.4021417000331,215.89915800001472,0.002811489161103964,0.502811489161104,216.1006638999097,None,None,None,left,3.8908195002004504,212.90828939992934,None,3.000002689193934,3.2000026891939344,,,,2021_May_18_1418,InterleavedStaircase,2020.2.10,59.79159046023103,
decanterStudio,decanterStudio,7,0,0,0,0,43,0,43,0,,,,,,,12,1,7,7.440625,7,1,2,1,217.49385299999267,219.99557550018653,0.0075890799053013325,0.5075890799053013,220.19513420015574,None,None,None,right,3.7574616000056267,217.0008904999122,None,3.0090617798268795,3.2090617798268797,,,,2021_May_18_1418,InterleavedStaircase,2020.2.10,59.79159046023103,
decanterStudio,decanterStudio,7,0,0,0,0,44,0,44,0,,,,,,,15,-1,7,10.680679645646748,11,0,1,1,221.44398440001532,223.94277320010588,0.003630689810961485,0.5036306898109615,224.14660069998354,None,None,None,left,5.043372900225222,220.95031999982893,None,3.0024909898638725,3.2024909898638727,,,,2021_May_18_1418,InterleavedStaircase,2020.2.10,59.79159046023103,
decanterStudio,decanterStudio,7,0,0,0,0,45,0,45,0,,,,,,,14,1,7,7.839189006942489,8,1,1,1,226.74629630008712,229.25454760016873,0.013262940105050802,0.5132629401050508,229.44230310013518,None,None,None,right,3.5273380000144243,226.2540918001905,None,3.006899239961058,3.206899239961058,,,,2021_May_18_1418,InterleavedStaircase,2020.2.10,59.79159046023103,
decanterStudio,decanterStudio,7,0,0,0,0,46,0,46,0,,,,,,,6,1,7,16.129166666666666,16,0,2,1,230.46494789980352,232.96796619985253,0.008933589793741703,0.5089335897937417,233.1561782998033,None,None,None,right,3.6901969998143613,229.97195910010487,None,2.999463589861989,3.199463589861989,,,,2021_May_18_1418,InterleavedStaircase,2020.2.10,59.79159046023103,
decanterStudio,decanterStudio,7,0,0,0,0,47,0,47,0,,,,,,,13,1,7,7.3531249999999995,7,1,2,1,234.34216619981453,236.8480279999785,0.01197629002854228,0.5119762900285423,237.03722649998963,None,None,None,right,3.7884730002842844,233.8486641999334,None,3.0063334899023175,3.2063334899023177,,,,2021_May_18_1418,InterleavedStaircase,2020.2.10,59.79159046023103,
decanterStudio,decanterStudio,7,0,0,0,0,48,0,48,0,,,,,,,14,-1,7,7.265624999999999,7,1,2,1,238.3271070001647,240.828286500182,0.00628658989444375,0.5062865898944438,241.02807280002162,None,None,None,left,4.073244099970907,237.83453129976988,None,3.0067979898303747,3.206797989830375,,,,2021_May_18_1418,InterleavedStaircase,2020.2.10,59.79159046023103,
decanterStudio,decanterStudio,7,0,0,0,0,49,0,49,0,,,,,,,16,1,7,10.418179645646749,10,0,1,1,242.6029831999913,245.1079744999297,0.011177079286426306,0.5111770792864263,245.29714159993455,None,None,None,right,3.4837858001701534,242.10872599994764,None,3.003621179610491,3.203621179610491,,,,2021_May_18_1418,InterleavedStaircase,2020.2.10,59.79159046023103,
decanterStudio,decanterStudio,7,0,0,0,0,50,0,50,0,,,,,,,7,-1,7,15.866666666666667,16,0,2,0,246.27744730003178,248.78842409979552,0.016484379302710295,0.5164843793027103,248.97761939978227,None,None,None,right,3.5390651002526283,245.78380239987746,None,3.015169179532677,3.215169179532677,,,,2021_May_18_1418,InterleavedStaircase,2020.2.10,59.79159046023103,
decanterStudio,decanterStudio,7,0,0,0,0,51,0,51,0,,,,,,,15,-1,7,7.755855673609156,8,1,1,1,250.00421610008925,252.50210739998147,0.005067190155386925,0.5050671901553869,252.7027276000008,None,None,None,left,3.879572299774736,249.50982489995658,None,3.0041540898382664,3.2041540898382666,,,,2021_May_18_1418,InterleavedStaircase,2020.2.10,59.79159046023103,
decanterStudio,decanterStudio,7,0,0,0,0,52,0,52,0,,,,,,,8,1,7,15.950000000000001,16,0,2,1,254.07375060021877,256.5822968999855,0.01226488035172224,0.5122648803517222,256.7674250002019,None,None,None,right,3.770145300310105,253.5815371000208,None,3.005760580301285,3.205760580301285,,,,2021_May_18_1418,InterleavedStaircase,2020.2.10,59.79159046023103,
decanterStudio,decanterStudio,7,0,0,0,0,53,0,53,0,,,,,,,9,1,7,15.711363636363638,16,0,2,1,258.02670839987695,260.52860199986026,0.008926889393478632,0.5089268893934786,260.7313156002201,None,None,None,right,3.7732545998878777,257.5327468002215,None,3.0111720892600715,3.2111720892600717,,,,2021_May_18_1418,InterleavedStaircase,2020.2.10,59.79159046023103,
decanterStudio,decanterStudio,7,0,0,0,0,54,0,54,0,,,,,,,10,-1,7,15.472727272727274,15,0,2,0,261.9976437999867,264.50865070009604,0.0015804897993803024,0.5015804897993803,264.69705680012703,None,None,None,right,3.809248600155115,261.50384399993345,None,3.001200989820063,3.2012009898200633,,,,2021_May_18_1418,InterleavedStaircase,2020.2.10,59.79159046023103,
decanterStudio,decanterStudio,7,0,0,0,0,55,0,55,0,,,,,,,11,1,7,15.548814229249013,16,0,2,1,266.01812859997153,268.52310180012137,0.01167756924405694,0.5116775692440569,268.71021049981937,None,None,None,right,3.6562942997552454,265.5238474002108,None,3.004139769356698,3.204139769356698,,,,2021_May_18_1418,InterleavedStaircase,2020.2.10,59.79159046023103,
decanterStudio,decanterStudio,7,0,0,0,0,56,0,56,0,,,,,,,12,1,7,15.330064229249013,15,0,2,1,269.91560659976676,272.4190917997621,0.010743159335106611,0.5107431593351066,272.60684349993244,None,None,None,right,3.721703799907118,269.4212270001881,None,3.00140865938738,3.20140865938738,,,,2021_May_18_1418,InterleavedStaircase,2020.2.10,59.79159046023103,
decanterStudio,decanterStudio,7,0,0,0,0,57,0,57,0,,,,,,,15,1,7,7.192708333333332,7,1,2,1,273.8223724998534,276.3326921998523,0.01576948957517743,0.5157694895751774,276.52095719985664,None,None,None,right,3.8422599998302758,273.32874599983916,None,3.0135028893128037,3.213502889312804,,,,2021_May_18_1418,InterleavedStaircase,2020.2.10,59.79159046023103,
decanterStudio,decanterStudio,7,0,0,0,0,58,0,58,0,,,,,,,13,1,7,15.111314229249013,15,0,2,1,277.8578356998041,280.3623409997672,0.012883089948445559,0.5128830899484456,280.55085399979725,None,None,None,right,3.7261938001029193,277.36226020008326,None,3.0067046899348497,3.20670468993485,,,,2021_May_18_1418,InterleavedStaircase,2020.2.10,59.79159046023103,
decanterStudio,decanterStudio,7,0,0,0,0,59,0,59,0,,,,,,,14,1,7,14.892564229249013,15,0,2,1,281.7754624998197,284.2765661999583,0.00684908963739872,0.5068490896373987,284.47921130014583,None,None,None,right,3.784131799824536,281.2818482997827,None,3.0087403897196054,3.2087403897196056,,,,2021_May_18_1418,InterleavedStaircase,2020.2.10,59.79159046023103,
decanterStudio,decanterStudio,7,0,0,0,0,60,0,60,0,,,,,,,16,-1,7,7.682939006942489,8,1,1,1,285.8865796998143,288.38936709985137,0.009922409895807505,0.5099224098958075,288.5778803001158,None,None,None,left,3.801478499546647,285.39410419994965,None,3.0000483100302517,3.200048310030252,,,,2021_May_18_1418,InterleavedStaircase,2020.2.10,59.79159046023103,
decanterStudio,decanterStudio,7,0,0,0,0,61,0,61,0,,,,,,,15,-1,7,14.673814229249013,15,0,2,1,289.88187110004947,292.3857569000684,0.010409289970993996,0.510409289970994,292.57291240012273,None,None,None,left,3.6335298996418715,289.3869297998026,None,3.0021933899261057,3.202193389926106,,,,2021_May_18_1418,InterleavedStaircase,2020.2.10,59.79159046023103,
decanterStudio,decanterStudio,7,0,0,0,0,62,0,62,0,,,,,,,16,1,7,14.455064229249013,14,0,2,1,293.69940999988467,296.19978239992633,0.005801689345389605,0.5058016893453896,296.3988769999705,None,None,None,right,3.621109399944544,293.2052201000042,None,3.0059527894482017,3.205952789448202,,,,2021_May_18_1418,InterleavedStaircase,2020.2.10,59.79159046023103,
decanterStudio,decanterStudio,7,0,0,0,0,63,0,63,0,,,,,,,16,1,7,7.119791666666665,7,1,2,0,297.51410529995337,300.0130766998045,0.005745589733123779,0.5057455897331238,300.21312379976735,None,None,None,left,3.930628700181842,297.0197148001753,None,3.0058051897212863,3.2058051897212865,,,,2021_May_18_1418,InterleavedStaircase,2020.2.10,59.79159046023103,
decanterStudio,decanterStudio,7,0,0,0,0,,,,,,,,,,,,,,,,,,,,,,,,,,,,,,,,,,,,2021_May_18_1418,InterleavedStaircase,2020.2.10,59.79159046023103,
decanterBedroom,noCokeStudio,7,0,1,1,1,0,0,0,0,,,301.05378320021555,302.06512519996613,302.0493846000172,None,1,-1,7,0,0,1,2,0,306.7025377000682,309.2054369999096,0.007926049642264843,0.5079260496422648,309.4062152002007,None,None,None,right,3.7505879001691937,306.210288700182,None,3.0095759495161474,3.2095759495161476,,,,2021_May_18_1418,InterleavedStaircase,2020.2.10,59.79159046023103,
decanterBedroom,noCokeStudio,7,0,1,1,1,1,0,1,0,,,,,,,1,-1,7,21,21,0,2,1,310.659569399897,313.169210200198,0.014856270048767328,0.5148562700487673,313.3569436999969,None,None,None,left,4.04173790011555,310.16706639993936,None,3.011029469780624,3.211029469780624,,,,2021_May_18_1418,InterleavedStaircase,2020.2.10,59.79159046023103,
decanterBedroom,noCokeStudio,7,0,1,1,1,2,0,2,0,,,,,,,1,-1,7,0,0,1,1,0,314.90423219976947,317.4155859001912,0.015517379622906446,0.5155173796229064,317.60472009982914,None,None,None,right,3.605372100137174,314.412618199829,None,3.01329447934404,3.2132944793440403,,,,2021_May_18_1418,InterleavedStaircase,2020.2.10,59.79159046023103,
decanterBedroom,noCokeStudio,7,0,1,1,1,3,0,3,0,,,,,,,2,1,7,2.625,3,1,2,1,318.72094639996067,321.22919229976833,0.015263069421052933,0.5152630694210529,321.41646440001205,None,None,None,right,4.065758399665356,318.22799160005525,None,3.0113091696985066,3.2113091696985068,,,,2021_May_18_1418,InterleavedStaircase,2020.2.10,59.79159046023103,
decanterBedroom,noCokeStudio,7,0,1,1,1,4,0,4,0,,,,,,,2,-1,7,2.625,3,1,1,0,323.0061170998961,325.50910210004076,0.008009969256818295,0.5080099692568183,325.7108105998486,None,None,None,right,3.65798609983176,322.5134229999967,None,3.010647069197148,3.2106470691971483,,,,2021_May_18_1418,InterleavedStaircase,2020.2.10,59.79159046023103,
decanterBedroom,noCokeStudio,7,0,1,1,1,5,0,5,0,,,,,,,2,1,7,18.375,18,0,2,1,326.88201569998637,329.3888765000738,0.013156869448721409,0.5131568694487214,329.5780573999509,None,None,None,right,3.6584665002301335,326.38798139989376,None,3.007197569590062,3.207197569590062,,,,2021_May_18_1418,InterleavedStaircase,2020.2.10,59.79159046023103,
decanterBedroom,noCokeStudio,7,0,1,1,1,6,0,6,0,,,,,,,3,1,7,16.625,17,0,2,1,330.7609051000327,333.2693174001761,0.014775469433516264,0.5147754694335163,333.4568686001003,None,None,None,right,3.9406782002188265,330.26643780013546,None,3.0116733694449067,3.211673369444907,,,,2021_May_18_1418,InterleavedStaircase,2020.2.10,59.79159046023103,
decanterBedroom,noCokeStudio,7,0,1,1,1,7,0,7,0,,,,,,,4,-1,7,14.875,15,0,2,1,334.91006430005655,337.416183100082,0.010908070020377636,0.5109080700203776,337.60305459983647,340.11380920000374,340.10056339995936,None,left,6.318074699956924,334.4174351999536,None,3.003581969998777,3.203581969998777,,,,2021_May_18_1418,InterleavedStaircase,2020.2.10,59.79159046023103,
decanterBedroom,noCokeStudio,7,0,1,1,1,8,0,8,0,,,,,,,1,-1,7,21,21,0,1,1,341.4506107000634,343.9609055998735,0.012093569152057171,0.5120935691520572,344.1531676999293,None,None,None,left,5.581349999643862,340.9568048999645,None,3.011230669450015,3.211230669450015,,,,2021_May_18_1418,InterleavedStaircase,2020.2.10,59.79159046023103,
decanterBedroom,noCokeStudio,7,0,1,1,1,9,0,9,0,,,,,,,3,-1,7,2.0416666666666665,2,1,2,0,347.32276549981907,349.8225124999881,0.005337430164217949,0.505337430164218,350.0225360998884,None,None,None,right,3.5062216999940574,346.8285007001832,None,3.0050954301841557,3.205095430184156,,,,2021_May_18_1418,InterleavedStaircase,2020.2.10,59.79159046023103,
decanterBedroom,noCokeStudio,7,0,1,1,1,10,0,10,0,,,,,,,4,-1,7,3.3541666666666665,3,1,2,0,351.0366099998355,353.5358482999727,0.00455438019707799,0.504554380197078,353.73762500006706,None,None,None,right,3.421761800069362,350.54250109987333,None,3.0040667802095413,3.2040667802095415,,,,2021_May_18_1418,InterleavedStaircase,2020.2.10,59.79159046023103,
decanterBedroom,noCokeStudio,7,0,1,1,1,11,0,11,0,,,,,,,2,-1,7,18.375,18,0,1,1,354.6722559998743,357.1667427001521,0.016575869638472795,0.5165758696384728,357.35729649988934,None,None,None,left,4.676163900177926,354.17797750001773,None,2.9999104696325958,3.199910469632596,,,,2021_May_18_1418,InterleavedStaircase,2020.2.10,59.79159046023103,
decanterBedroom,noCokeStudio,7,0,1,1,1,12,0,12,0,,,,,,,5,-1,7,13.5625,14,0,2,0,359.5970952999778,362.0953959999606,0.004826649557799101,0.5048266495577991,362.29529230017215,None,None,None,right,4.235796199645847,359.10322970012203,None,3.003340249415487,3.2033402494154872,,,,2021_May_18_1418,InterleavedStaircase,2020.2.10,59.79159046023103,
decanterBedroom,noCokeStudio,7,0,1,1,1,13,0,13,0,,,,,,,3,-1,7,17.325,17,0,1,1,364.05738960020244,366.55838460009545,0.007865369319915771,0.5078653693199158,366.75901979999617,None,None,None,left,4.542396599892527,363.56270120013505,None,3.010368869174272,3.210368869174272,,,,2021_May_18_1418,InterleavedStaircase,2020.2.10,59.79159046023103,
decanterBedroom,noCokeStudio,7,0,1,1,1,14,0,14,0,,,,,,,5,1,7,4.404166666666667,4,1,2,0,368.82203679997474,371.32125819986686,0.004594269208610058,0.5045942692086101,371.52273519989103,374.0193190998398,374.0193190998398,None,left,6.040477500297129,368.3283635000698,None,3.003961769398302,3.203961769398302,,,,2021_May_18_1418,InterleavedStaircase,2020.2.10,59.79159046023103,
decanterBedroom,noCokeStudio,7,0,1,1,1,15,0,15,0,,,,,,,6,-1,7,5.454166666666667,5,1,2,0,375.05579190002754,377.56591839995235,0.012003679759800434,0.5120036797598004,377.7535218000412,None,None,None,right,4.933892600238323,374.56366650015116,None,3.008319679647684,3.2083196796476843,,,,2021_May_18_1418,InterleavedStaircase,2020.2.10,59.79159046023103,
decanterBedroom,noCokeStudio,7,0,1,1,1,16,0,16,0,,,,,,,3,1,7,3.675,4,1,1,0,380.2144809998572,382.7119053998031,0.0028707697056233883,0.5028707697056234,382.9121435000561,385.40992739982903,385.40992739982903,None,left,6.0447243000380695,379.7212426001206,None,2.999340469483286,3.1993404694832863,,,,2021_May_18_1418,InterleavedStaircase,2020.2.10,59.79159046023103,
decanterBedroom,noCokeStudio,7,0,1,1,1,17,0,17,0,,,,,,,6,-1,7,13.9125,14,0,2,1,386.5324265998788,389.04041530005634,0.008985240012407303,0.5089852400124073,389.22916440013796,None,None,None,left,3.8896256000734866,386.03912309976295,None,3.003659840207547,3.203659840207547,,,,2021_May_18_1418,InterleavedStaircase,2020.2.10,59.79159046023103,
decanterBedroom,noCokeStudio,7,0,1,1,1,18,0,18,0,,,,,,,4,-1,7,16.45,16,0,1,1,390.6372752999887,393.13665649993345,0.004552579950541258,0.5045525799505413,393.3357179001905,None,None,None,left,4.003366199787706,390.14374479977414,None,3.003405679948628,3.203405679948628,,,,2021_May_18_1418,InterleavedStaircase,2020.2.10,59.79159046023103,
decanterBedroom,noCokeStudio,7,0,1,1,1,19,0,19,0,,,,,,,4,1,7,4.55,5,1,1,0,394.85329349990934,397.34985109977424,0.0020480798557400703,0.5020480798557401,397.5670130997896,None,None,None,left,3.8215831997804344,394.35996339982376,None,3.0152088799513876,3.215208879951388,,,,2021_May_18_1418,InterleavedStaircase,2020.2.10,59.79159046023103,
decanterBedroom,noCokeStudio,7,0,1,1,1,20,0,20,0,,,,,,,5,1,7,5.425,5,1,1,1,398.88161099981517,401.3801374998875,0.004566479939967394,0.5045664799399674,401.5820359000936,None,None,None,right,3.669833999592811,398.3878274997696,None,3.002525679767132,3.202525679767132,,,,2021_May_18_1418,InterleavedStaircase,2020.2.10,59.79159046023103,
decanterBedroom,noCokeStudio,7,0,1,1,1,21,0,21,0,,,,,,,5,-1,7,15.7,16,0,1,0,402.7630640999414,None,0.0026902793906629086,0.5026902793906629,None,None,None,None,right,1.168968599755317,402.27009670017287,None,None,None,,,,2021_May_18_1418,InterleavedStaircase,2020.2.10,59.79159046023103,
decanterBedroom,noCokeStudio,7,0,1,1,1,22,0,22,0,,,,,,,6,-1,7,5.20625,5,1,1,0,404.14835039991885,406.65898169996217,0.0012661796063184738,0.5012661796063185,406.8463368997909,None,None,None,right,3.68514860002324,403.6524710999802,None,3.000848679803312,3.200848679803312,,,,2021_May_18_1418,InterleavedStaircase,2020.2.10,59.79159046023103,
decanterBedroom,noCokeStudio,7,0,1,1,1,23,0,23,0,,,,,,,6,-1,7,15.894444444444444,16,0,1,0,408.0503448997624,410.555643199943,0.01080677006393671,0.5108067700639367,410.74358179979026,None,None,None,right,3.85870230011642,407.5568177001551,None,3.0027026697061956,3.2027026697061958,,,,2021_May_18_1418,InterleavedStaircase,2020.2.10,59.79159046023103,
decanterBedroom,noCokeStudio,7,0,1,1,1,24,0,24,0,,,,,,,7,-1,7,16.08888888888889,16,0,1,0,412.1155106998049,414.61890299990773,0.007586880121380091,0.5075868801213801,414.8189699999057,None,None,None,right,3.6547377998940647,411.6231737998314,None,3.009113379754126,3.2091133797541262,,,,2021_May_18_1418,InterleavedStaircase,2020.2.10,59.79159046023103,
decanterBedroom,noCokeStudio,7,0,1,1,1,25,0,25,0,,,,,,,7,1,7,13.329166666666666,13,0,2,0,415.9880622001365,418.49936420004815,0.0003918795846402645,0.5003918795846403,418.6988181001507,421.19724939996377,421.19724939996377,None,left,5.982217200100422,415.49409630009905,None,3.0114952796138823,3.2114952796138825,,,,2021_May_18_1418,InterleavedStaircase,2020.2.10,59.79159046023103,
decanterBedroom,noCokeStudio,7,0,1,1,1,26,0,26,0,,,,,,,7,-1,7,5.731249999999999,6,1,1,1,422.1879826001823,424.69385210005566,0.009576169773936272,0.5095761697739363,424.88233709987253,None,None,None,left,4.078765999991447,421.69326729979366,None,3.003996269777417,3.2039962697774174,,,,2021_May_18_1418,InterleavedStaircase,2020.2.10,59.79159046023103,
decanterBedroom,noCokeStudio,7,0,1,1,1,27,0,27,0,,,,,,,8,1,7,13.488257575757574,13,0,2,1,426.47198740020394,428.9737844998017,0.007057579699903727,0.5070575796999037,429.1741941999644,None,None,None,right,3.930443999823183,425.9793286002241,None,3.0077733797952533,3.2077733797952535,,,,2021_May_18_1418,InterleavedStaircase,2020.2.10,59.79159046023103,
decanterBedroom,noCokeStudio,7,0,1,1,1,28,0,28,0,,,,,,,8,-1,7,16.23472222222222,16,0,1,0,430.60999759985134,None,0.0004349793307483196,0.5004349793307483,None,None,None,None,right,0.9620868000201881,430.1148936999962,None,None,None,,,,2021_May_18_1418,InterleavedStaircase,2020.2.10,59.79159046023103,
decanterBedroom,noCokeStudio,7,0,1,1,1,29,0,29,0,,,,,,,7,1,7,5.891666666666667,6,1,2,0,431.79686739994213,None,0.013113759458065033,0.513113759458065,None,None,None,None,left,1.907531099859625,431.3025402999483,None,None,None,,,,2021_May_18_1418,InterleavedStaircase,2020.2.10,59.79159046023103,
decanterBedroom,noCokeStudio,7,0,1,1,1,30,0,30,0,,,,,,,9,1,7,13.050757575757574,13,0,2,0,433.93416910013184,436.4346313998103,0.007885369472205639,0.5078853694722056,436.63419209979475,None,None,None,left,3.786066100001335,433.4389784000814,None,3.0091928695328534,3.2091928695328535,,,,2021_May_18_1418,InterleavedStaircase,2020.2.10,59.79159046023103,
decanterBedroom,noCokeStudio,7,0,1,1,1,31,0,31,0,,,,,,,8,1,7,6.295512820512821,6,1,2,1,437.9349219999276,440.4309840002097,0.0007228800095617771,0.5007228800095618,440.6469948999584,None,None,None,right,4.270900500006974,437.4416829999536,None,3.012941979803145,3.212941979803145,,,,2021_May_18_1418,InterleavedStaircase,2020.2.10,59.79159046023103,
decanterBedroom,noCokeStudio,7,0,1,1,1,32,0,32,0,,,,,,,9,-1,7,16.35972222222222,16,0,1,1,442.41656319983304,444.9276411999017,0.016539469826966524,0.5165394698269665,445.1166790998541,None,None,None,left,4.610630099661648,441.9246213999577,None,3.0147186699323356,3.214718669932336,,,,2021_May_18_1418,InterleavedStaircase,2020.2.10,59.79159046023103,
decanterBedroom,noCokeStudio,7,0,1,1,1,33,0,33,0,,,,,,,10,-1,7,16.00972222222222,16,0,1,1,447.286456100177,449.7908335002139,0.010625649709254503,0.5106256497092545,449.97713360004127,None,None,None,left,4.308570399880409,446.79332750011235,None,3.001714749727398,3.2017147497273983,,,,2021_May_18_1418,InterleavedStaircase,2020.2.10,59.79159046023103,
decanterBedroom,noCokeStudio,7,0,1,1,1,34,0,34,0,,,,,,,10,1,7,13.167424242424241,13,0,2,1,451.8034532000311,454.30285950005054,0.0037402804009616375,0.5037402804009616,454.503668599762,None,None,None,right,3.9714935002848506,451.3105566999875,None,3.0019842800684273,3.2019842800684275,,,,2021_May_18_1418,InterleavedStaircase,2020.2.10,59.79159046023103,
decanterBedroom,noCokeStudio,7,0,1,1,1,35,0,35,0,,,,,,,11,1,7,12.839299242424241,13,0,2,1,455.99049750017,458.4998741000891,0.014710070099681616,0.5147100700996816,458.68720000004396,None,None,None,right,3.6498163999058306,455.4974687998183,None,3.0106461700052023,3.2106461700052025,,,,2021_May_18_1418,InterleavedStaircase,2020.2.10,59.79159046023103,
decanterBedroom,noCokeStudio,7,0,1,1,1,36,0,36,0,,,,,,,11,-1,7,15.68159722222222,16,0,1,1,459.8503139000386,462.3466047998518,0.0017885798588395119,0.5017885798588395,462.5633251997642,None,None,None,left,4.991394499782473,459.3567695999518,None,3.0140399797819555,3.2140399797819557,,,,2021_May_18_1418,InterleavedStaircase,2020.2.10,59.79159046023103,
decanterBedroom,noCokeStudio,7,0,1,1,1,37,0,37,0,,,,,,,8,1,7,5.621874999999999,6,1,1,1,465.2052890001796,467.7087170998566,0.012951679527759552,0.5129516795277596,467.8958648000844,None,None,None,right,4.0622113002464175,464.71083980007097,None,3.005562379490584,3.2055623794905843,,,,2021_May_18_1418,InterleavedStaircase,2020.2.10,59.79159046023103,
decanterBedroom,noCokeStudio,7,0,1,1,1,38,0,38,0,,,,,,,12,1,7,12.511174242424241,13,0,2,0,469.4802473997697,471.9885932998732,0.015185769647359848,0.5151857696473598,472.17776189977303,None,None,None,left,4.89999460009858,468.98502339981496,None,3.0130731696262956,3.2130731696262957,,,,2021_May_18_1418,InterleavedStaircase,2020.2.10,59.79159046023103,
decanterBedroom,noCokeStudio,7,0,1,1,1,39,0,39,0,,,,,,,9,-1,7,5.518933823529411,6,1,1,0,474.58962369989604,477.0844025001861,0.00041047995910048485,0.5004104799591005,477.30223800009117,None,None,None,right,3.825252200011164,474.0954907000996,None,3.0125419795513153,3.2125419795513155,,,,2021_May_18_1418,InterleavedStaircase,2020.2.10,59.79159046023103,
decanterBedroom,noCokeStudio,7,0,1,1,1,40,0,40,0,,,,,,,9,-1,7,6.1982905982905985,6,1,2,0,478.61680669989437,None,0.004567479714751244,0.5045674797147512,None,None,None,None,right,1.4936472000554204,478.1250800001435,None,None,None,,,,2021_May_18_1418,InterleavedStaircase,2020.2.10,59.79159046023103,
decanterBedroom,noCokeStudio,7,0,1,1,1,41,0,41,0,,,,,,,12,1,7,15.405281432748534,15,0,1,1,480.3163415999152,482.8130466998555,0.0013123797252774239,0.5013123797252774,483.0291026001796,None,None,None,right,3.859737199731171,479.82519519980997,None,3.0131832798942924,3.2131832798942925,,,,2021_May_18_1418,InterleavedStaircase,2020.2.10,59.79159046023103,
decanterBedroom,noCokeStudio,7,0,1,1,1,42,0,42,0,,,,,,,10,-1,7,6.4746063877642825,6,1,2,0,484.3862749999389,486.8929368997924,0.012612279504537582,0.5126122795045376,487.08143649995327,489.59114139992744,489.5778759000823,None,right,5.963244300335646,483.89372760010883,None,3.0065001798793674,3.2065001798793675,,,,2021_May_18_1418,InterleavedStaircase,2020.2.10,59.79159046023103,
decanterBedroom,noCokeStudio,7,0,1,1,1,43,0,43,0,,,,,,,13,1,7,15.12896564327485,15,0,1,1,490.5596218998544,493.07134710019454,0.013513469602912664,0.5135134696029127,493.2596046999097,None,None,None,right,3.814611400011927,490.06637590005994,None,3.011517569888383,3.2115175698883833,,,,2021_May_18_1418,InterleavedStaircase,2020.2.10,59.79159046023103,
decanterBedroom,noCokeStudio,7,0,1,1,1,44,0,44,0,,,,,,,13,1,7,12.603279505582137,13,0,2,1,494.6134151997976,497.11768609983847,0.012310659512877464,0.5123106595128775,497.3088067001663,None,None,None,right,3.758709500078112,494.1171972001903,None,3.007313259411603,3.2073132594116034,,,,2021_May_18_1418,InterleavedStaircase,2020.2.10,59.79159046023103,
decanterBedroom,noCokeStudio,7,0,1,1,1,45,0,45,0,,,,,,,14,-1,7,14.86646564327485,15,0,1,0,498.5906639001332,501.09792459988967,0.013458669651299715,0.5134586696512997,501.28586219996214,None,None,None,right,3.8800022997893393,498.09692389983684,None,3.008782370015979,3.208782370015979,,,,2021_May_18_1418,InterleavedStaircase,2020.2.10,59.79159046023103,
decanterBedroom,noCokeStudio,7,0,1,1,1,46,0,46,0,,,,,,,14,-1,7,12.353279505582137,12,0,2,0,502.6926914001815,505.1944975000806,0.007870469707995653,0.5078704697079957,505.3936721999198,None,None,None,right,3.6936633000150323,502.1981203998439,None,3.010419669561088,3.2104196695610883,,,,2021_May_18_1418,InterleavedStaircase,2020.2.10,59.79159046023103,
decanterBedroom,noCokeStudio,7,0,1,1,1,47,0,47,0,,,,,,,15,-1,7,14.946011097820305,15,0,1,0,506.5921720000915,509.0915737999603,0.003737380262464285,0.5037373802624643,509.2930240998976,None,None,None,right,3.59451249986887,506.09979220014066,None,3.0021187802776694,3.2021187802776696,,,,2021_May_18_1418,InterleavedStaircase,2020.2.10,59.79159046023103,
decanterBedroom,noCokeStudio,7,0,1,1,1,48,0,48,0,,,,,,,15,1,7,12.432824960127592,12,0,2,0,510.3929770998657,512.9051365000196,0.00200617965310812,0.5020061796531081,513.0937675000168,None,None,None,left,3.7365598999895155,509.89812739985064,None,3.0019066794775426,3.201906679477543,,,,2021_May_18_1418,InterleavedStaircase,2020.2.10,59.79159046023103,
decanterBedroom,noCokeStudio,7,0,1,1,1,49,0,49,0,,,,,,,16,1,7,15.02555655236576,15,0,1,1,514.3346338998526,516.8350399998017,0.006013480015099049,0.506013480015099,517.0352334999479,None,None,None,right,3.633662400301546,513.841070199851,None,3.0062122801318765,3.2062122801318766,,,,2021_May_18_1418,InterleavedStaircase,2020.2.10,59.79159046023103,
decanterBedroom,noCokeStudio,7,0,1,1,1,50,0,50,0,,,,,,,16,1,7,12.50891191664933,13,0,2,1,518.1737416000105,520.6826761998236,0.013452379498630762,0.5134523794986308,520.871143499855,None,None,None,right,3.6406451002694666,517.6806315998547,None,3.0090812793932855,3.2090812793932857,,,,2021_May_18_1418,InterleavedStaircase,2020.2.10,59.79159046023103,
decanterBedroom,noCokeStudio,7,0,1,1,1,51,0,51,0,,,,,,,11,1,7,6.6933563877642825,7,1,2,1,522.0391081999987,524.5460320999846,0.012840969953685999,0.512840969953686,524.7372150998563,None,None,None,right,3.5206327997148037,521.544851299841,None,3.009026669897139,3.2090266698971393,,,,2021_May_18_1418,InterleavedStaircase,2020.2.10,59.79159046023103,
decanterBedroom,noCokeStudio,7,0,1,1,1,52,0,52,0,,,,,,,12,-1,7,6.623356387764282,7,1,2,1,525.8948043999262,528.3919477998279,0.003125099465250969,0.503125099465251,528.6086336998269,None,None,None,left,4.075102099683136,525.4039364000782,None,3.0155829996801913,3.2155829996801915,,,,2021_May_18_1418,InterleavedStaircase,2020.2.10,59.79159046023103,
decanterBedroom,noCokeStudio,7,0,1,1,1,53,0,53,0,,,,,,,13,-1,7,6.553356387764282,7,1,2,0,530.2356389998458,532.7386628999375,0.010101939551532269,0.5101019395515323,532.928588300012,None,None,None,right,5.296693500131369,529.743685899768,None,3.0020685396157205,3.2020685396157207,,,,2021_May_18_1418,InterleavedStaircase,2020.2.10,59.79159046023103,
decanterBedroom,noCokeStudio,7,0,1,1,1,54,0,54,0,,,,,,,10,1,7,5.720856900452488,6,1,1,1,535.742342100013,538.2513084998354,0.015517569612711668,0.5155175696127117,538.4403417999856,None,None,None,right,4.891052599996328,535.2488259999081,None,3.011621569748968,3.211621569748968,,,,2021_May_18_1418,InterleavedStaircase,2020.2.10,59.79159046023103,
decanterBedroom,noCokeStudio,7,0,1,1,1,55,0,55,0,,,,,,,14,1,7,6.747800832208727,7,1,2,0,540.8505203002132,543.3468407997862,0.0022979797795414925,0.5022979797795415,543.5483645000495,None,None,None,left,3.8681014999747276,540.3562198001891,None,2.999026379548013,3.1990263795480134,,,,2021_May_18_1418,InterleavedStaircase,2020.2.10,59.79159046023103,
decanterBedroom,noCokeStudio,7,0,1,1,1,56,0,56,0,,,,,,,15,1,7,6.942245276653171,7,1,2,1,544.9323773002252,547.443221999798,0.015410369727760553,0.5154103697277606,547.6314109000377,None,None,None,right,3.369169299956411,544.4401293001138,None,3.0132369697093964,3.2132369697093965,,,,2021_May_18_1418,InterleavedStaircase,2020.2.10,59.79159046023103,
decanterBedroom,noCokeStudio,7,0,1,1,1,57,0,57,0,,,,,,,11,-1,7,5.658356900452488,6,1,1,1,548.5235077999532,551.0236050998792,0.00735856918618083,0.5073585691861808,551.2234073001891,None,None,None,left,4.072911499999464,548.0286365998909,None,3.0082187694497406,3.208218769449741,,,,2021_May_18_1418,InterleavedStaircase,2020.2.10,59.79159046023103,
decanterBedroom,noCokeStudio,7,0,1,1,1,58,0,58,0,,,,,,,16,1,7,6.879745276653171,7,1,2,1,552.8066742997617,555.3034748998471,0.0014298795722424984,0.5014298795722425,555.5205795001239,None,None,None,right,3.713662799913436,552.3143376000226,None,3.0135828792117536,3.213582879211754,,,,2021_May_18_1418,InterleavedStaircase,2020.2.10,59.79159046023103,
decanterBedroom,noCokeStudio,7,0,1,1,1,59,0,59,0,,,,,,,12,1,7,5.595856900452488,6,1,1,1,556.7462325999513,559.2508344999515,0.009113669395446777,0.5091136693954468,559.4370515001938,None,None,None,right,3.716657899785787,556.2536813998595,None,2.999234969727695,3.199234969727695,,,,2021_May_18_1418,InterleavedStaircase,2020.2.10,59.79159046023103,
decanterBedroom,noCokeStudio,7,0,1,1,1,60,0,60,0,,,,,,,13,-1,7,5.533356900452488,6,1,1,1,560.6787203000858,563.1805333998054,0.0060537694953382015,0.5060537694953382,563.382155300118,None,None,None,left,4.063457800075412,560.1865405999124,None,3.0061967694200575,3.2061967694200577,,,,2021_May_18_1418,InterleavedStaircase,2020.2.10,59.79159046023103,
decanterBedroom,noCokeStudio,7,0,1,1,1,61,0,61,0,,,,,,,14,1,7,5.470856900452488,5,1,1,0,564.951656400226,567.4604016998783,0.01567936921492219,0.5156793692149222,567.6514640999958,None,None,None,left,3.935152600053698,564.4567987001501,None,3.0132869696244597,3.21328696962446,,,,2021_May_18_1418,InterleavedStaircase,2020.2.10,59.79159046023103,
decanterBedroom,noCokeStudio,7,0,1,1,1,62,0,62,0,,,,,,,15,-1,7,5.651891383211109,6,1,1,0,569.0971452998929,571.606943400111,0.015085469465702772,0.5150854694657028,571.7960183001123,None,None,None,right,4.205955000128597,568.6039506001398,None,3.011343569494784,3.211343569494784,,,,2021_May_18_1418,InterleavedStaircase,2020.2.10,59.79159046023103,
decanterBedroom,noCokeStudio,7,0,1,1,1,63,0,63,0,,,,,,,16,1,7,5.83292586596973,6,1,1,0,573.5428777998313,576.0533054000698,0.0002723592333495617,0.5002723592333496,576.2406406002119,None,None,None,left,4.700368300080299,573.0491793002002,None,2.9992217593826354,3.1992217593826355,,,,2021_May_18_1418,InterleavedStaircase,2020.2.10,59.79159046023103,
decanterBedroom,noCokeStudio,7,0,1,1,1,,,,,,,,,,,,,,,,,,,,,,,,,,,,,,,,,,,,2021_May_18_1418,InterleavedStaircase,2020.2.10,59.79159046023103,
,,,,,,,,,,,,,,,,,,,,,,,,,,,,,,,,,,,,,,,577.7685222001746,None,,,,,,
