imageSetLvl,imageSetName,refSetNumber,trials_2.thisRepN,trials_2.thisTrialN,trials_2.thisN,trials_2.thisIndex,trials.thisRepN,trials.thisTrialN,trials.thisN,trials.thisIndex,text.started,text.stopped,text_3.started,text_3.stopped,image.started,image.stopped,Trial No.,Comp Side,Ref Num,Level List,Bounce Num,Staircase,Scene No,comp>ref?,leftImagePortrait.started,leftImagePortrait.stopped,ISI.started,ISI.stopped,rightImagePortrait.started,rightImagePortrait.stopped,text_2.started,text_2.stopped,resp.keys,resp.rt,resp.started,resp.stopped,ISI_2.started,ISI_2.stopped,text_4.started,text_4.stopped,participant,date,expName,psychopyVersion,frameRate,
decanterStudio,decanterStudio,7,0,0,0,0,0,0,0,0,13.311647800263017,None,36.399761700071394,37.42794040031731,37.42028950015083,None,1,-1,7,0,0,1,2,0,42.02681790012866,44.52607070002705,0.003500239457935095,0.5035002394579351,44.725913900416344,47.2237145002,47.2237145002,None,right,8.78700859984383,41.53373240027577,None,3.0013412395492196,3.20134123954922,,,L,2021_May_19_2300,InterleavedStaircase,2020.2.10,60.006324700811284,
decanterStudio,decanterStudio,7,0,0,0,0,1,0,1,0,,,,,,,1,1,7,21,21,0,2,1,50.98157810000703,53.48542120028287,0.005536900367587805,0.5055369003675878,53.68546660011634,56.18336720019579,56.18336720019579,None,right,10.954417200293392,50.48851850023493,None,3.008354499936104,3.208354499936104,,,L,2021_May_19_2300,InterleavedStaircase,2020.2.10,60.006324700811284,
decanterStudio,decanterStudio,7,0,0,0,0,2,0,2,0,,,,,,,1,-1,7,0,0,1,1,0,62.17482289997861,64.67617730004713,0.002312940079718828,0.5023129400797188,64.87616470037028,67.37409420032054,67.37409420032054,None,right,7.3862152001820505,61.682301700115204,None,3.0021344400011003,3.2021344400011005,,,L,2021_May_19_2300,InterleavedStaircase,2020.2.10,60.006324700811284,
decanterStudio,decanterStudio,7,0,0,0,0,3,0,3,0,,,,,,,2,1,7,18.375,18,0,2,1,69.7321906001307,72.23666200041771,0.004959000274538994,0.504959000274539,72.43625520030037,74.93455790029839,74.93455790029839,None,right,5.701047400012612,69.24027180019766,None,3.0072864005342126,3.2072864005342128,,,L,2021_May_19_2300,InterleavedStaircase,2020.2.10,60.006324700811284,
decanterStudio,decanterStudio,7,0,0,0,0,4,0,4,0,,,,,,,2,-1,7,2.625,3,1,1,0,75.66249010013416,78.16517140017822,0.0036226799711585045,0.5036226799711585,78.36465170001611,80.86278389999643,80.86278389999643,None,right,6.7076254999265075,75.1702340003103,None,3.0046275798231363,3.2046275798231365,,,L,2021_May_19_2300,InterleavedStaircase,2020.2.10,60.006324700811284,
decanterStudio,decanterStudio,7,0,0,0,0,5,0,5,0,,,,,,,1,1,7,21,21,0,1,0,82.60074560018256,85.10928780026734,0.010101139545440674,0.5101011395454407,85.29494500020519,None,None,None,left,4.788835600018501,82.10708650015295,None,3.004545339848846,3.2045453398488464,,,L,2021_May_19_2300,InterleavedStaircase,2020.2.10,60.006324700811284,
decanterStudio,decanterStudio,7,0,0,0,0,6,0,6,0,,,,,,,3,1,7,15.75,16,0,2,0,87.54744650004432,90.05518660042435,0.012039199937134981,0.512039199937135,90.24115760019049,92.75319040007889,92.74009450012818,None,left,5.710768100339919,87.05496970005333,None,3.0052066002972424,3.2052066002972426,,,L,2021_May_19_2300,InterleavedStaircase,2020.2.10,60.006324700811284,
decanterStudio,decanterStudio,7,0,0,0,0,7,0,7,0,,,,,,,2,1,7,21,21,0,1,0,93.41873730020598,95.91718630027026,0.01591830002143979,0.5159183000214398,96.10280990041792,None,None,None,left,4.823636199813336,92.92644469998777,None,2.999241200275719,3.1992412002757193,,,L,2021_May_19_2300,InterleavedStaircase,2020.2.10,60.006324700811284,
decanterStudio,decanterStudio,7,0,0,0,0,8,0,8,0,,,,,,,3,-1,7,21,21,0,1,0,98.4043140001595,100.91297439998016,0.015601200051605701,0.5156012000516057,101.10032400023192,None,None,None,right,4.933150399941951,97.90895229997113,None,3.0120276999659836,3.212027699965984,,,L,2021_May_19_2300,InterleavedStaircase,2020.2.10,60.006324700811284,
decanterStudio,decanterStudio,7,0,0,0,0,9,0,9,0,,,,,,,3,-1,7,4.375,4,1,1,0,103.51112590031698,106.00898740021512,0.002524799667298794,0.5025247996672988,106.20818990003318,None,None,None,right,5.337582299951464,103.01804330013692,None,2.999432399868965,3.1994323998689653,,,L,2021_May_19_2300,InterleavedStaircase,2020.2.10,60.006324700811284,
decanterStudio,decanterStudio,7,0,0,0,0,10,0,10,0,,,,,,,4,1,7,21,21,0,1,0,109.0145283001475,111.52082730038092,0.012347499839961529,0.5123474998399615,111.70804900024086,None,None,None,left,5.191630000248551,108.52013600012287,None,3.0057429000735283,3.2057429000735285,,,L,2021_May_19_2300,InterleavedStaircase,2020.2.10,60.006324700811284,
decanterStudio,decanterStudio,7,0,0,0,0,11,0,11,0,,,,,,,5,1,7,21,21,0,1,0,114.37300660042092,116.88334600022063,0.015238800086081028,0.515238800086081,117.06944950018078,None,None,None,left,5.378400899935514,113.87935930024832,None,3.011360500007868,3.211360500007868,,,L,2021_May_19_2300,InterleavedStaircase,2020.2.10,60.006324700811284,
decanterStudio,decanterStudio,7,0,0,0,0,12,0,12,0,,,,,,,4,-1,7,6.125,6,1,1,0,119.93480170005932,122.44544500019401,2.4300534278154373e-05,0.5000243005342782,122.6439836001955,None,None,None,right,4.666059399954975,119.4402878000401,None,3.0104780006222427,3.210478000622243,,,L,2021_May_19_2300,InterleavedStaircase,2020.2.10,60.006324700811284,
decanterStudio,decanterStudio,7,0,0,0,0,13,0,13,0,,,,,,,6,1,7,21,21,0,1,0,124.76444900035858,127.27480260003358,0.014378400053828955,0.514378400053829,127.4609945002012,None,None,None,left,4.288436700124294,124.27198250032961,None,3.0095519004389644,3.2095519004389645,,,L,2021_May_19_2300,InterleavedStaircase,2020.2.10,60.006324700811284,
decanterStudio,decanterStudio,7,0,0,0,0,14,0,14,0,,,,,,,2,-1,7,2.625,3,1,2,0,129.21675430005416,131.72101850016043,0.008618500549346209,0.5086185005493462,131.9212291003205,None,None,None,right,4.9945139000192285,128.72395060025156,None,3.0112421005032957,3.211242100503296,,,L,2021_May_19_2300,InterleavedStaircase,2020.2.10,60.006324700811284,
decanterStudio,decanterStudio,7,0,0,0,0,15,0,15,0,,,,,,,5,-1,7,7.875,8,1,1,0,134.385067100171,136.88361870031804,0.002854000311344862,0.5028540003113449,137.08371930010617,None,None,None,right,4.032326600048691,133.89250010019168,None,2.9999514003284276,3.1999514003284277,,,L,2021_May_19_2300,InterleavedStaircase,2020.2.10,60.006324700811284,
decanterStudio,decanterStudio,7,0,0,0,0,16,0,16,0,,,,,,,3,-1,7,4.375,4,1,2,1,138.59217349998653,141.09657300030813,0.008217000402510166,0.5082170004025102,141.2990383002907,None,None,None,left,4.545291800051928,138.1007060003467,None,3.010657500475645,3.2106575004756452,,,L,2021_May_19_2300,InterleavedStaircase,2020.2.10,60.006324700811284,
decanterStudio,decanterStudio,7,0,0,0,0,17,0,17,0,,,,,,,7,1,7,21,21,0,1,0,143.3971026004292,145.90923510026187,0.004507400095462799,0.5045074000954628,146.09527679998428,None,None,None,left,4.38992980029434,142.9017343004234,None,3.0053139999508858,3.205313999950886,,,L,2021_May_19_2300,InterleavedStaircase,2020.2.10,60.006324700811284,
decanterStudio,decanterStudio,7,0,0,0,0,18,0,18,0,,,,,,,8,-1,7,21,21,0,1,0,147.9480489003472,150.45550160016865,0.011588499881327152,0.5115884998813272,150.64091890025884,153.136785000097,153.136785000097,None,right,6.512810900341719,147.4560499000363,None,3.0036276997998357,3.203627699799836,,,L,2021_May_19_2300,InterleavedStaircase,2020.2.10,60.006324700811284,
decanterStudio,decanterStudio,7,0,0,0,0,19,0,19,0,,,,,,,9,1,7,21,21,0,1,0,154.61898580007255,157.11670790007338,0.01520810043439269,0.5152081004343927,157.31561590032652,159.81492520030588,159.81492520030588,None,left,5.859083299990743,154.1264510001056,None,3.011758600361645,3.2117586003616454,,,L,2021_May_19_2300,InterleavedStaircase,2020.2.10,60.006324700811284,
decanterStudio,decanterStudio,7,0,0,0,0,20,0,20,0,,,,,,,10,1,7,21,21,0,1,0,160.7073482000269,163.21196050010622,0.006993880495429039,0.506993880495429,163.41256810026243,165.90983130037785,165.90983130037785,None,left,8.395928800106049,160.2124588000588,None,3.0115325804799795,3.2115325804799797,,,L,2021_May_19_2300,InterleavedStaircase,2020.2.10,60.006324700811284,
decanterStudio,decanterStudio,7,0,0,0,0,21,0,21,0,,,,,,,6,1,7,9.1875,9,1,1,1,169.29780480032787,171.8048718003556,0.008566420059651136,0.5085664200596511,171.9911790001206,None,None,None,right,4.67658089986071,168.8048363002017,None,3.001390620134771,3.201390620134771,,,L,2021_May_19_2300,InterleavedStaircase,2020.2.10,60.006324700811284,
decanterStudio,decanterStudio,7,0,0,0,0,22,0,22,0,,,,,,,11,1,7,21,21,0,1,0,174.141355200205,176.65089610032737,0.013329200446605682,0.5133292004466057,176.83662870014086,179.33197220042348,179.33197220042348,None,left,6.697017599828541,173.64926390023902,None,3.0074607003480196,3.2074607003480198,,,L,2021_May_19_2300,InterleavedStaircase,2020.2.10,60.006324700811284,
decanterStudio,decanterStudio,7,0,0,0,0,23,0,23,0,,,,,,,12,1,7,21,21,0,1,0,181.03197880042717,183.5284020002,0.015209019649773836,0.5152090196497738,183.72762610018253,None,None,None,left,4.715751799754798,180.5377017003484,None,3.0112447198480368,3.211244719848037,,,L,2021_May_19_2300,InterleavedStaircase,2020.2.10,60.006324700811284,
decanterStudio,decanterStudio,7,0,0,0,0,24,0,24,0,,,,,,,4,1,7,16.1,16,0,2,0,185.91045890003443,188.40772100025788,0.0015066396445035934,0.5015066396445036,188.62335620028898,None,None,None,left,4.211478699930012,185.41812720010057,None,3.0135777397081256,3.2135777397081258,,,L,2021_May_19_2300,InterleavedStaircase,2020.2.10,60.006324700811284,
decanterStudio,decanterStudio,7,0,0,0,0,25,0,25,0,,,,,,,5,1,7,16.450000000000003,16,0,2,0,190.30376770021394,192.80421890038997,0.004662300460040569,0.5046623004600406,193.00458660023287,195.5019558002241,195.5019558002241,None,left,6.2065023998729885,189.81117110000923,None,3.003658000379801,3.203658000379801,,,L,2021_May_19_2300,InterleavedStaircase,2020.2.10,60.006324700811284,
decanterStudio,decanterStudio,7,0,0,0,0,26,0,26,0,,,,,,,13,-1,7,21,21,0,1,0,196.74653240013868,199.24881900008768,0.0031641400419175625,0.5031641400419176,199.44723270041868,None,None,None,right,4.163644200190902,196.2545663001947,None,3.003809240180999,3.203809240180999,,,L,2021_May_19_2300,InterleavedStaircase,2020.2.10,60.006324700811284,
decanterStudio,decanterStudio,7,0,0,0,0,27,0,27,0,,,,,,,7,1,7,8.8375,9,1,1,1,201.1680912002921,203.678547100164,0.001666800118982792,0.5016668001189828,203.86482180003077,None,None,None,right,4.403082299977541,200.67327330028638,None,2.9998759999871254,3.1998759999871256,,,L,2021_May_19_2300,InterleavedStaircase,2020.2.10,60.006324700811284,
decanterStudio,decanterStudio,7,0,0,0,0,28,0,28,0,,,,,,,6,1,7,16.800000000000004,17,0,2,0,205.74010420031846,208.24145820038393,0.00636029988527298,0.506360299885273,208.44091170001775,None,None,None,left,4.237724099773914,205.247866100166,None,3.0070938002318144,3.2070938002318146,,,L,2021_May_19_2300,InterleavedStaircase,2020.2.10,60.006324700811284,
decanterStudio,decanterStudio,7,0,0,0,0,29,0,29,0,,,,,,,14,-1,7,21,21,0,1,0,210.1452240999788,212.65445470018312,0.013323799706995487,0.5133237997069955,212.84036800032482,None,None,None,right,5.005918499547988,209.65292720030993,None,3.007242700085044,3.207242700085044,,,L,2021_May_19_2300,InterleavedStaircase,2020.2.10,60.006324700811284,
decanterStudio,decanterStudio,7,0,0,0,0,30,0,30,0,,,,,,,15,1,7,21,21,0,1,0,215.3242204003036,217.83356910012662,0.013332200236618519,0.5133322002366185,218.0199008001946,None,None,None,left,5.243640699889511,214.8317252001725,None,3.007488999981433,3.2074889999814333,,,L,2021_May_19_2300,InterleavedStaircase,2020.2.10,60.006324700811284,
decanterStudio,decanterStudio,7,0,0,0,0,31,0,31,0,,,,,,,8,-1,7,8.4875,8,1,1,1,220.73891460010782,223.2458085999824,0.011755899991840124,0.5117558999918401,223.43161680037156,None,None,None,left,4.246232900302857,220.2455380000174,None,3.004417199641466,3.2044171996414663,,,L,2021_May_19_2300,InterleavedStaircase,2020.2.10,60.006324700811284,
decanterStudio,decanterStudio,7,0,0,0,0,32,0,32,0,,,,,,,4,1,7,4.025,4,1,2,1,225.14756630035117,227.65879990020767,0.015001100022345781,0.5150011000223458,227.84481270005926,None,None,None,right,4.305264600086957,224.6554320002906,None,3.010845699813217,3.210845699813217,,,L,2021_May_19_2300,InterleavedStaircase,2020.2.10,60.006324700811284,
decanterStudio,decanterStudio,7,0,0,0,0,33,0,33,0,,,,,,,5,-1,7,3.6750000000000003,4,1,2,1,229.61032360000536,232.12181270029396,0.016313999891281128,0.5163139998912811,232.30787510005757,None,None,None,left,5.64877020008862,229.11738459998742,None,3.0134203997440636,3.213420399744064,,,L,2021_May_19_2300,InterleavedStaircase,2020.2.10,60.006324700811284,
decanterStudio,decanterStudio,7,0,0,0,0,34,0,34,0,,,,,,,7,1,7,17.150000000000006,17,0,2,0,235.42506729997694,237.93400630028918,0.01257409993559122,0.5125740999355912,238.1202265000902,None,None,None,left,4.268856099806726,234.93432950042188,None,3.006466600112617,3.206466600112617,,,L,2021_May_19_2300,InterleavedStaircase,2020.2.10,60.006324700811284,
decanterStudio,decanterStudio,7,0,0,0,0,35,0,35,0,,,,,,,6,-1,7,3.325,3,1,2,1,239.8521622000262,242.3634150000289,0.016041300259530544,0.5160413002595305,242.54890620009974,None,None,None,left,5.300358599983156,239.35957600036636,None,3.0131950001232326,3.213195000123233,,,L,2021_May_19_2300,InterleavedStaircase,2020.2.10,60.006324700811284,
decanterStudio,decanterStudio,7,0,0,0,0,36,0,36,0,,,,,,,9,-1,7,8.137500000000001,8,1,1,1,245.37537510041147,247.87556389998645,0.005064780358225107,0.5050647803582251,248.07492020027712,None,None,None,left,4.447241300251335,244.88239360041916,None,3.0041491803713143,3.2041491803713145,,,L,2021_May_19_2300,InterleavedStaircase,2020.2.10,60.006324700811284,
decanterStudio,decanterStudio,7,0,0,0,0,37,0,37,0,,,,,,,10,-1,7,7.787500000000001,8,1,1,1,250.0000725002028,252.50511090038344,0.008291299920529127,0.5082912999205291,252.70452340040356,None,None,None,left,4.277710299938917,249.50831279996783,None,3.010887799784541,3.2108877997845413,,,L,2021_May_19_2300,InterleavedStaircase,2020.2.10,60.006324700811284,
decanterStudio,decanterStudio,7,0,0,0,0,38,0,38,0,,,,,,,11,-1,7,7.437500000000002,7,1,1,0,254.51678710011765,257.01807270012796,0.006276339758187532,0.5062763397581875,257.2172426003963,None,None,None,right,4.2755564004182816,254.02331240009516,None,3.0063261399045587,3.206326139904559,,,L,2021_May_19_2300,InterleavedStaircase,2020.2.10,60.006324700811284,
decanterStudio,decanterStudio,7,0,0,0,0,39,0,39,0,,,,,,,12,1,7,8.312500000000002,8,1,1,1,258.96159100020304,261.4644472002983,0.010240600444376469,0.5102406004443765,261.65578739997,None,None,None,right,3.9604789996519685,258.46617070026696,None,3.0028010001406074,3.2028010001406075,,,L,2021_May_19_2300,InterleavedStaircase,2020.2.10,60.006324700811284,
decanterStudio,decanterStudio,7,0,0,0,0,40,0,40,0,,,,,,,13,1,7,8.062500000000002,8,1,1,1,263.1789177004248,265.6776833003387,0.004741900134831667,0.5047419001348317,265.87687320029363,None,None,None,right,3.9598909998312593,262.68674610042945,None,3.002482000272721,3.2024820002727212,,,L,2021_May_19_2300,InterleavedStaircase,2020.2.10,60.006324700811284,
decanterStudio,decanterStudio,7,0,0,0,0,41,0,41,0,,,,,,,14,-1,7,7.812500000000002,8,1,1,1,267.3033440001309,269.8075626003556,0.007862099912017584,0.5078620999120176,270.007083600387,None,None,None,left,4.167117400094867,266.8115591001697,None,3.009708400350064,3.209708400350064,,,L,2021_May_19_2300,InterleavedStaircase,2020.2.10,60.006324700811284,
decanterStudio,decanterStudio,7,0,0,0,0,42,0,42,0,,,,,,,16,-1,7,21,21,0,1,0,271.64805090008304,274.1539982999675,0.009972999803721905,0.5099729998037219,274.34007430030033,None,None,None,right,4.779660800006241,271.15483390027657,None,3.001312599517405,3.201312599517405,,,L,2021_May_19_2300,InterleavedStaircase,2020.2.10,60.006324700811284,
decanterStudio,decanterStudio,7,0,0,0,0,43,0,43,0,,,,,,,7,-1,7,3.075,3,1,2,0,276.58933710027486,279.0999618000351,0.015603299718350172,0.5156032997183502,279.28546000039205,281.7811445002444,281.7811445002444,None,right,6.595765000209212,276.09606860019267,None,3.0120403999462724,3.2120403999462726,,,L,2021_May_19_2300,InterleavedStaircase,2020.2.10,60.006324700811284,
decanterStudio,decanterStudio,7,0,0,0,0,44,0,44,0,,,,,,,8,1,7,3.73125,4,1,2,0,283.3902325001545,285.8943759002723,0.0049354201182723045,0.5049354201182723,286.09368860023096,None,None,None,left,4.780504300259054,282.897201300133,None,3.0074252202175558,3.207425220217556,,,L,2021_May_19_2300,InterleavedStaircase,2020.2.10,60.006324700811284,
decanterStudio,decanterStudio,7,0,0,0,0,45,0,45,0,,,,,,,15,1,7,7.593750000000002,8,1,1,1,288.33682230021805,290.84029830014333,0.00785479974001646,0.5078547997400165,291.03947560023516,None,None,None,right,4.09462200012058,287.84422850003466,None,3.0097954999655485,3.2097954999655487,,,L,2021_May_19_2300,InterleavedStaircase,2020.2.10,60.006324700811284,
decanterStudio,decanterStudio,7,0,0,0,0,46,0,46,0,,,,,,,8,-1,7,17.368750000000006,17,0,2,1,292.5934971002862,295.1034955000505,0.014055900275707245,0.5140559002757072,295.29011110030115,None,None,None,left,5.461709700059146,292.1012612003833,None,3.0091450004838407,3.209145000483841,,,L,2021_May_19_2300,InterleavedStaircase,2020.2.10,60.006324700811284,
decanterStudio,decanterStudio,7,0,0,0,0,47,0,47,0,,,,,,,9,-1,7,16.785416666666674,17,0,2,0,298.24239390017465,300.74886130029336,0.010804260615259409,0.5108042606152594,300.935182900168,None,None,None,right,3.929459100123495,297.7499336004257,None,3.0024394602514803,3.2024394602514805,,,L,2021_May_19_2300,InterleavedStaircase,2020.2.10,60.006324700811284,
decanterStudio,decanterStudio,7,0,0,0,0,48,0,48,0,,,,,,,16,1,7,7.418750000000002,7,1,1,0,302.33996300026774,304.8454613001086,0.01028030039742589,0.5102803003974259,305.0312965000048,None,None,None,left,4.306912899948657,301.8468387001194,None,3.0009747999720275,3.2009747999720277,,,L,2021_May_19_2300,InterleavedStaircase,2020.2.10,60.006324700811284,
decanterStudio,decanterStudio,7,0,0,0,0,49,0,49,0,,,,,,,9,1,7,4.208522727272728,4,1,2,1,306.81495210016146,309.32514340011403,0.014029199723154306,0.5140291997231543,309.5114997001365,None,None,None,right,4.422754799947143,306.3228416000493,None,3.0086397998966277,3.208639799896628,,,L,2021_May_19_2300,InterleavedStaircase,2020.2.10,60.006324700811284,
decanterStudio,decanterStudio,7,0,0,0,0,50,0,50,0,,,,,,,10,1,7,4.062689393939395,4,1,2,1,311.39440370025113,313.9046738999896,0.015500100329518318,0.5155001003295183,314.09072230011225,None,None,None,right,4.663961300160736,310.90117970015854,None,3.0116130001842976,3.2116130001842977,,,L,2021_May_19_2300,InterleavedStaircase,2020.2.10,60.006324700811284,
decanterStudio,decanterStudio,7,0,0,0,0,51,0,51,0,,,,,,,11,1,7,3.916856060606061,4,1,2,0,316.2252122000791,318.73409490007907,0.013317400123924017,0.513317400123924,318.9194505000487,None,None,None,left,4.323447300121188,315.73280040035024,None,3.0074391001835465,3.2074391001835467,,,L,2021_May_19_2300,InterleavedStaircase,2020.2.10,60.006324700811284,
decanterStudio,decanterStudio,7,0,0,0,0,52,0,52,0,,,,,,,12,-1,7,4.320702214452215,4,1,2,0,320.72129870019853,323.2304202001542,0.015149799641221762,0.5151497996412218,323.4210920999758,None,None,None,right,5.149158699903637,320.2265908000991,None,3.0127525995485485,3.2127525995485486,,,L,2021_May_19_2300,InterleavedStaircase,2020.2.10,60.006324700811284,
decanterStudio,decanterStudio,7,0,0,0,0,53,0,53,0,,,,,,,13,1,7,4.724548368298369,5,1,2,0,326.0730179999955,328.57600930007175,0.0067934198305010796,0.5067934198305011,328.776118400041,None,None,None,left,5.612825599964708,325.58066039998084,None,3.007590420078486,3.2075904200784864,,,L,2021_May_19_2300,InterleavedStaircase,2020.2.10,60.006324700811284,
decanterStudio,decanterStudio,7,0,0,0,0,54,0,54,0,,,,,,,10,1,7,16.920032051282057,17,0,2,0,331.86077960021794,334.3712265002541,0.015247560571879148,0.5152475605718791,334.5579254999757,337.06914070015773,337.0563058000989,None,left,6.563425399828702,331.36819620011374,None,3.011083360761404,3.211083360761404,,,L,2021_May_19_2300,InterleavedStaircase,2020.2.10,60.006324700811284,
decanterStudio,decanterStudio,7,0,0,0,0,55,0,55,0,,,,,,,14,-1,7,5.128394522144523,5,1,2,1,338.5877317003906,341.0989968003705,0.01229269988834858,0.5122926998883486,341.2850637002848,None,None,None,left,5.343370100017637,338.0954404002987,None,3.0090274000540376,3.2090274000540377,,,L,2021_May_19_2300,InterleavedStaircase,2020.2.10,60.006324700811284,
decanterStudio,decanterStudio,7,0,0,0,0,56,0,56,0,,,,,,,11,1,7,17.045032051282057,17,0,2,0,344.09971350012347,346.6111667002551,0.015709000173956156,0.5157090001739562,346.7969659003429,349.3090502000414,349.29576680017635,None,left,6.204116600099951,343.6073619001545,None,3.012414699885994,3.2124146998859944,,,L,2021_May_19_2300,InterleavedStaircase,2020.2.10,60.006324700811284,
decanterStudio,decanterStudio,7,0,0,0,0,57,0,57,0,,,,,,,12,1,7,17.170032051282057,17,0,2,0,350.47190740006045,352.972695000004,0.0014866399578750134,0.501486639957875,353.1737346001901,355.67051109997556,355.67051109997556,None,left,5.759389599785209,349.97906590020284,None,3.0005263397470117,3.200526339747012,,,L,2021_May_19_2300,InterleavedStaircase,2020.2.10,60.006324700811284,
decanterStudio,decanterStudio,7,0,0,0,0,58,0,58,0,,,,,,,13,-1,7,17.295032051282057,17,0,2,0,356.3846711004153,358.884479300119,0.0005325395613908768,0.5005325395613909,359.1005079001188,361.5990148000419,361.58586450014263,None,right,6.451930300332606,355.89303420018405,None,3.015212739352137,3.215212739352137,,,L,2021_May_19_2300,InterleavedStaircase,2020.2.10,60.006324700811284,
decanterStudio,decanterStudio,7,0,0,0,0,59,0,59,0,,,,,,,14,-1,7,17.420032051282057,17,0,2,0,363.03217860031873,365.528973700013,0.014762620441615582,0.5147626204416156,365.7279079002328,368.2270843000151,368.2270843000151,None,right,6.1495352000929415,362.5385020002723,None,3.0103387203998864,3.2103387203998865,,,L,2021_May_19_2300,InterleavedStaircase,2020.2.10,60.006324700811284,
decanterStudio,decanterStudio,7,0,0,0,0,60,0,60,0,,,,,,,15,1,7,5.003394522144523,5,1,2,1,369.34528800006956,371.8406767002307,0.01275280024856329,0.5127528002485633,372.039484300185,374.5383624001406,374.5383624001406,None,right,6.271043000277132,368.8525753002614,None,3.0065363002941012,3.2065363002941014,,,L,2021_May_19_2300,InterleavedStaircase,2020.2.10,60.006324700811284,
decanterStudio,decanterStudio,7,0,0,0,0,61,0,61,0,,,,,,,15,1,7,17.545032051282057,18,0,2,0,375.7838643002324,378.28518880018964,0.00259373988956213,0.5025937398895621,378.4850926999934,380.9830745002255,380.9830745002255,None,left,6.70140890032053,375.2909568999894,None,3.002683739643544,3.202683739643544,,,L,2021_May_19_2300,InterleavedStaircase,2020.2.10,60.006324700811284,
decanterStudio,decanterStudio,7,0,0,0,0,62,0,62,0,,,,,,,16,1,7,17.670032051282057,18,0,2,0,382.8239453001879,385.3293631002307,0.009938800241798162,0.5099388002417982,385.5153014003299,None,None,None,left,4.392294699791819,382.3291289000772,None,3.003962800372392,3.203962800372392,,,L,2021_May_19_2300,InterleavedStaircase,2020.2.10,60.006324700811284,
decanterStudio,decanterStudio,7,0,0,0,0,63,0,63,0,,,,,,,16,1,7,4.878394522144523,5,1,2,1,387.3819345002994,389.8923034002073,0.014623300172388554,0.5146233001723886,390.0777135002427,None,None,None,right,4.221578600350767,386.88958190009,None,3.0102465003728867,3.210246500372887,,,L,2021_May_19_2300,InterleavedStaircase,2020.2.10,60.006324700811284,
decanterStudio,decanterStudio,7,0,0,0,0,,,,,,,,,,,,,,,,,,,,,,,,,,,,,,,,,,,L,2021_May_19_2300,InterleavedStaircase,2020.2.10,60.006324700811284,
decanterBedroom,noCokeStudio,7,0,1,1,1,0,0,0,0,,,391.21053880034015,392.22698689997196,392.2111223000102,None,1,1,7,0,0,1,2,0,396.80781580042094,399.317919800058,0.0143321193754673,0.5143321193754673,399.5044367001392,402.01580940000713,402.00247900001705,None,left,5.7756301001645625,396.31518060015514,None,3.0097755193710327,3.209775519371033,,,L,2021_May_19_2300,InterleavedStaircase,2020.2.10,60.006324700811284,
decanterBedroom,noCokeStudio,7,0,1,1,1,1,0,1,0,,,,,,,1,1,7,21,21,0,1,0,402.85118890041485,405.36302530020475,0.01322445971891284,0.5132244597189128,405.54818360041827,408.0442519001663,408.0442519001663,None,left,6.7030694000422955,402.3581844000146,None,3.0105454600416124,3.2105454600416126,,,L,2021_May_19_2300,InterleavedStaircase,2020.2.10,60.006324700811284,
decanterBedroom,noCokeStudio,7,0,1,1,1,2,0,2,0,,,,,,,2,-1,7,2.625,3,1,2,0,409.7831789003685,412.2905945000239,0.008604039438068867,0.5086040394380689,412.4768438003957,414.9884964004159,414.97536680009216,None,right,7.153509600088,409.28990360023454,None,3.001171039417386,3.2011710394173862,,,L,2021_May_19_2300,InterleavedStaircase,2020.2.10,60.006324700811284,
decanterBedroom,noCokeStudio,7,0,1,1,1,3,0,3,0,,,,,,,1,-1,7,21,21,0,2,1,417.1325758001767,419.63462840020657,0.003040560055524111,0.5030405600555241,419.8335441001691,422.33243230031803,422.33243230031803,None,left,6.1853113998658955,416.6400344003923,None,3.0034022596664727,3.203402259666473,,,L,2021_May_19_2300,InterleavedStaircase,2020.2.10,60.006324700811284,
decanterBedroom,noCokeStudio,7,0,1,1,1,4,0,4,0,,,,,,,3,-1,7,5.25,5,1,2,0,423.57815780024976,426.07931890012696,0.0010724002495408058,0.5010724002495408,426.2786749000661,428.7771870000288,428.7771870000288,None,right,5.714746700134128,423.08659250009805,None,2.9997065998613834,3.1997065998613836,,,L,2021_May_19_2300,InterleavedStaircase,2020.2.10,60.006324700811284,
decanterBedroom,noCokeStudio,7,0,1,1,1,5,0,5,0,,,,,,,4,1,7,7.875,8,1,2,1,429.5326038002968,432.0411135000177,0.009129439946264029,0.509129439946264,432.22697040019557,434.7389679001644,434.72568280017003,None,right,6.485264299903065,429.04030850017443,None,3.0026034396141768,3.202603439614177,,,L,2021_May_19_2300,InterleavedStaircase,2020.2.10,60.006324700811284,
decanterBedroom,noCokeStudio,7,0,1,1,1,6,0,6,0,,,,,,,1,1,7,0,0,1,1,0,436.2076163003221,438.7189136003144,0.012292560189962387,0.5122925601899624,438.9047401002608,None,None,None,left,5.255178399849683,435.71465220022947,None,3.008782260119915,3.208782260119915,,,L,2021_May_19_2300,InterleavedStaircase,2020.2.10,60.006324700811284,
decanterBedroom,noCokeStudio,7,0,1,1,1,7,0,7,0,,,,,,,5,-1,7,7.291666666666667,7,1,2,0,441.8124000001699,444.31433830037713,0.008183560334146023,0.508183560334146,444.51548880012706,None,None,None,right,4.980841099750251,441.31969820009544,None,3.009488960262388,3.209488960262388,,,L,2021_May_19_2300,InterleavedStaircase,2020.2.10,60.006324700811284,
decanterBedroom,noCokeStudio,7,0,1,1,1,8,0,8,0,,,,,,,6,1,7,8.604166666666668,9,1,2,1,446.9994942001067,449.5100279999897,0.01542602013796568,0.5154260201379657,449.70588500006124,None,None,None,right,5.243479399941862,446.5055659003556,None,3.011707320343703,3.211707320343703,,,L,2021_May_19_2300,InterleavedStaircase,2020.2.10,60.006324700811284,
decanterBedroom,noCokeStudio,7,0,1,1,1,9,0,9,0,,,,,,,2,-1,7,18.375,18,0,2,0,452.45259670028463,454.9555723001249,0.007336420472711325,0.5073364204727113,455.15466210013255,None,None,None,right,4.898914599791169,451.96016350016,None,3.0090227201581,3.2090227201581003,,,L,2021_May_19_2300,InterleavedStaircase,2020.2.10,60.006324700811284,
decanterBedroom,noCokeStudio,7,0,1,1,1,10,0,10,0,,,,,,,3,1,7,18.666666666666668,19,0,2,0,457.5399075001478,460.0516222002916,0.00012966012582182884,0.5001296601258218,460.25023970007896,None,None,None,left,5.493247999809682,457.0459422999993,None,3.011147360317409,3.211147360317409,,,L,2021_May_19_2300,InterleavedStaircase,2020.2.10,60.006324700811284,
decanterBedroom,noCokeStudio,7,0,1,1,1,11,0,11,0,,,,,,,7,-1,7,8.312500000000002,8,1,2,0,463.222809500061,465.7302117003128,0.011164960451424122,0.5111649604514241,465.9170193001628,468.41134740039706,468.41134740039706,None,right,5.697703999932855,462.73063330026343,None,3.003724360372871,3.2037243603728713,,,L,2021_May_19_2300,InterleavedStaircase,2020.2.10,60.006324700811284,
decanterBedroom,noCokeStudio,7,0,1,1,1,12,0,12,0,,,,,,,2,-1,7,21,21,0,1,0,469.1180712999776,471.6252698004246,0.0076596601866185665,0.5076596601866186,471.81168460007757,None,None,None,right,5.138167500030249,468.6257880004123,None,2.9995236601680517,3.199523660168052,,,L,2021_May_19_2300,InterleavedStaircase,2020.2.10,60.006324700811284,
decanterBedroom,noCokeStudio,7,0,1,1,1,13,0,13,0,,,,,,,4,1,7,18.916666666666668,19,0,2,0,474.4439467000775,476.95417490042746,0.013909460045397282,0.5139094600453973,477.14003060013056,479.6354275001213,479.6354275001213,None,left,6.16359020024538,473.95161140011624,None,3.009142559953034,3.209142559953034,,,L,2021_May_19_2300,InterleavedStaircase,2020.2.10,60.006324700811284,
decanterBedroom,noCokeStudio,7,0,1,1,1,14,0,14,0,,,,,,,3,-1,7,21,21,0,1,0,480.7879353002645,483.2990191001445,0.01221676031127572,0.5122167603112757,483.4860801002942,None,None,None,right,5.0004817000590265,480.29479030007496,None,3.008655160199851,3.208655160199851,,,L,2021_May_19_2300,InterleavedStaircase,2020.2.10,60.006324700811284,
decanterBedroom,noCokeStudio,7,0,1,1,1,15,0,15,0,,,,,,,8,-1,7,9.062500000000002,9,1,2,1,485.9665307002142,488.47832930041477,0.015732360538095236,0.5157323605380952,488.6646021003835,None,None,None,left,4.833118099719286,485.474001200404,None,3.0127232605591416,3.212723260559142,,,L,2021_May_19_2300,InterleavedStaircase,2020.2.10,60.006324700811284,
decanterBedroom,noCokeStudio,7,0,1,1,1,16,0,16,0,,,,,,,2,-1,7,2.625,3,1,1,0,490.9962785001844,493.5075211003423,0.01552012050524354,0.5155201205052435,493.69355030031875,None,None,None,right,3.8247467996552587,490.50311730010435,None,3.012419620528817,3.2124196205288174,,,L,2021_May_19_2300,InterleavedStaircase,2020.2.10,60.006324700811284,
decanterBedroom,noCokeStudio,7,0,1,1,1,17,0,17,0,,,,,,,5,-1,7,19.135416666666668,19,0,2,0,495.00012750038877,497.5041000000201,0.008304659742861986,0.508304659742862,497.7025856003165,None,None,None,right,4.059313000179827,494.5082263001241,None,3.0109638599678874,3.2109638599678876,,,L,2021_May_19_2300,InterleavedStaircase,2020.2.10,60.006324700811284,
decanterBedroom,noCokeStudio,7,0,1,1,1,18,0,18,0,,,,,,,9,-1,7,8.843750000000002,9,1,2,0,499.2476397003047,501.75052570039406,0.0068305605091154575,0.5068305605091155,501.95086370036006,None,None,None,right,4.439686799887568,498.75524460012093,None,3.0077666603028774,3.2077666603028776,,,L,2021_May_19_2300,InterleavedStaircase,2020.2.10,60.006324700811284,
decanterBedroom,noCokeStudio,7,0,1,1,1,19,0,19,0,,,,,,,3,1,7,3.2083333333333335,3,1,1,0,503.90882450016215,506.4133899002336,0.009646280203014612,0.5096462802030146,506.5990429003723,None,None,None,left,3.9289597999304533,503.4149379003793,None,3.000328680034727,3.200328680034727,,,L,2021_May_19_2300,InterleavedStaircase,2020.2.10,60.006324700811284,
decanterBedroom,noCokeStudio,7,0,1,1,1,20,0,20,0,,,,,,,4,1,7,3.791666666666667,4,1,1,0,508.0426493003033,510.5433069001883,0.005515119526535273,0.5055151195265353,510.7438675002195,None,None,None,left,4.0016216998919845,507.5498383003287,None,3.0054494198411703,3.2054494198411705,,,L,2021_May_19_2300,InterleavedStaircase,2020.2.10,60.006324700811284,
decanterBedroom,noCokeStudio,7,0,1,1,1,21,0,21,0,,,,,,,4,-1,7,21,21,0,1,0,512.2620866000652,514.7731350003742,0.01563778007403016,0.5156377800740302,514.9587542000227,None,None,None,right,4.064994900021702,511.76894610002637,None,3.0118350801058114,3.2118350801058115,,,L,2021_May_19_2300,InterleavedStaircase,2020.2.10,60.006324700811284,
decanterBedroom,noCokeStudio,7,0,1,1,1,22,0,22,0,,,,,,,10,-1,7,9.427083333333336,9,1,2,0,516.5209225001745,519.0196852004156,0.0032099601812660694,0.5032099601812661,519.2189671001397,None,None,None,right,4.09246479999274,516.0276770000346,None,3.000620760023594,3.200620760023594,,,L,2021_May_19_2300,InterleavedStaircase,2020.2.10,60.006324700811284,
decanterBedroom,noCokeStudio,7,0,1,1,1,23,0,23,0,,,,,,,5,1,7,21,21,0,1,0,520.8021228001453,523.299537200015,0.0017752605490386486,0.5017752605490386,523.5144862001762,None,None,None,left,4.431322999764234,520.3096764003858,None,3.0143316606990993,3.2143316606990995,,,L,2021_May_19_2300,InterleavedStaircase,2020.2.10,60.006324700811284,
decanterBedroom,noCokeStudio,7,0,1,1,1,24,0,24,0,,,,,,,6,1,7,21,21,0,1,0,525.4259955002926,527.9290679004043,0.006668060552328825,0.5066680605523288,528.1270400001667,None,None,None,left,4.078482399694622,524.9340912001207,None,3.007625060621649,3.207625060621649,,,L,2021_May_19_2300,InterleavedStaircase,2020.2.10,60.006324700811284,
decanterBedroom,noCokeStudio,7,0,1,1,1,25,0,25,0,,,,,,,5,1,7,4.375,4,1,1,0,529.6902007004246,532.1921709002927,0.005308760330080986,0.505308760330081,532.3922348003834,None,None,None,left,4.183498799800873,529.1982814003713,None,3.004725960083306,3.204725960083306,,,L,2021_May_19_2300,InterleavedStaircase,2020.2.10,60.006324700811284,
decanterBedroom,noCokeStudio,7,0,1,1,1,26,0,26,0,,,,,,,7,1,7,21,21,0,1,0,534.0774474004284,536.5885343002155,0.01629602024331689,0.5162960202433169,536.7750682001933,None,None,None,left,3.9736048001796007,533.5847503002733,None,3.013077220413834,3.213077220413834,,,L,2021_May_19_2300,InterleavedStaircase,2020.2.10,60.006324700811284,
decanterBedroom,noCokeStudio,7,0,1,1,1,27,0,27,0,,,,,,,8,-1,7,21,21,0,1,0,538.2368114003912,540.7351744002663,0.003020159900188446,0.5030201599001884,540.9391823001206,None,None,None,right,4.487922700121999,537.7448931001127,None,2.9999427599832416,3.1999427599832417,,,L,2021_May_19_2300,InterleavedStaircase,2020.2.10,60.006324700811284,
decanterBedroom,noCokeStudio,7,0,1,1,1,28,0,28,0,,,,,,,11,-1,7,10.01041666666667,10,1,2,0,542.9207349000499,545.4312877003103,0.014788220170885324,0.5147882201708853,545.6180275003426,None,None,None,right,3.940677400212735,542.4283007001504,None,3.0115235201083124,3.2115235201083125,,,L,2021_May_19_2300,InterleavedStaircase,2020.2.10,60.006324700811284,
decanterBedroom,noCokeStudio,7,0,1,1,1,29,0,29,0,,,,,,,6,-1,7,19.32986111111111,19,0,2,0,547.0689803003334,549.5779040004127,0.013369080144912004,0.513369080144912,549.7631085002795,None,None,None,right,4.055951699614525,546.5757112000138,None,3.007398880086839,3.2073988800868394,,,L,2021_May_19_2300,InterleavedStaircase,2020.2.10,60.006324700811284,
decanterBedroom,noCokeStudio,7,0,1,1,1,30,0,30,0,,,,,,,6,-1,7,4.958333333333333,5,1,1,0,551.3185833999887,553.8244215003215,0.009255019947886467,0.5092550199478865,554.0102738002315,None,None,None,right,4.890245799906552,550.8265496003442,None,2.9996150201186538,3.199615020118654,,,L,2021_May_19_2300,InterleavedStaircase,2020.2.10,60.006324700811284,
decanterBedroom,noCokeStudio,7,0,1,1,1,31,0,31,0,,,,,,,7,1,7,19.524305555555554,20,0,2,0,556.4314737999812,558.9369331002235,0.00963908014819026,0.5096390801481903,559.1235201000236,None,None,None,left,4.075290599837899,555.9384385002777,None,3.0006931801326573,3.2006931801326575,,,L,2021_May_19_2300,InterleavedStaircase,2020.2.10,60.006324700811284,
decanterBedroom,noCokeStudio,7,0,1,1,1,32,0,32,0,,,,,,,8,-1,7,19.718749999999996,20,0,2,0,560.7054665000178,563.2167415004224,0.0013996604830026627,0.5013996604830027,563.4061294002458,None,None,None,right,3.9748293003067374,560.2105289003812,None,3.0011583603918552,3.2011583603918554,,,L,2021_May_19_2300,InterleavedStaircase,2020.2.10,60.006324700811284,
decanterBedroom,noCokeStudio,7,0,1,1,1,33,0,33,0,,,,,,,7,1,7,5.541666666666666,6,1,1,1,564.9689707001671,567.4798970003612,0.016573280096054077,0.5165732800960541,567.6649502003565,None,None,None,right,3.9055198999121785,564.4764682999812,None,3.0129726799204946,3.2129726799204947,,,L,2021_May_19_2300,InterleavedStaircase,2020.2.10,60.006324700811284,
decanterBedroom,noCokeStudio,7,0,1,1,1,34,0,34,0,,,,,,,9,-1,7,19.893749999999997,20,0,2,0,569.0538172000088,571.5598895000294,0.009548860602080822,0.5095488606020808,571.7460266002454,None,None,None,right,3.966174999717623,568.5618461002596,None,3.000059060752392,3.200059060752392,,,L,2021_May_19_2300,InterleavedStaircase,2020.2.10,60.006324700811284,
decanterBedroom,noCokeStudio,7,0,1,1,1,35,0,35,0,,,,,,,12,1,7,10.53541666666667,11,1,2,1,573.2148485002108,575.723135500215,0.01190592022612691,0.5119059202261269,575.9090425004251,None,None,None,right,4.169857999775559,572.7226214003749,None,3.0044608204625547,3.204460820462555,,,L,2021_May_19_2300,InterleavedStaircase,2020.2.10,60.006324700811284,
decanterBedroom,noCokeStudio,7,0,1,1,1,36,0,36,0,,,,,,,13,-1,7,10.376325757575762,10,1,2,0,577.5696506001987,580.0695053003728,0.0032261600717902184,0.5032261600717902,580.2683679000475,None,None,None,right,4.349845000077039,577.0778553001583,None,3.0004740599542856,3.200474059954286,,,L,2021_May_19_2300,InterleavedStaircase,2020.2.10,60.006324700811284,
decanterBedroom,noCokeStudio,7,0,1,1,1,37,0,37,0,,,,,,,14,1,7,10.813825757575762,11,1,2,1,582.109380400274,584.6158819003031,0.009878560435026884,0.5098785604350269,584.8020387003198,None,None,None,right,3.9250083002261817,581.6172357001342,None,3.001199660822749,3.2011996608227493,,,L,2021_May_19_2300,InterleavedStaircase,2020.2.10,60.006324700811284,
decanterBedroom,noCokeStudio,7,0,1,1,1,38,0,38,0,,,,,,,8,-1,7,5.407051282051281,5,1,1,0,586.2354001002386,588.7458302001469,0.01515391981229186,0.5151539198122919,588.9322546003386,None,None,None,right,5.152913299854845,585.741578400135,None,3.011544819921255,3.2115448199212553,,,L,2021_May_19_2300,InterleavedStaircase,2020.2.10,60.006324700811284,
decanterBedroom,noCokeStudio,7,0,1,1,1,39,0,39,0,,,,,,,15,1,7,10.688825757575762,11,1,2,1,591.5742013002746,594.0747732003219,0.005893959663808346,0.5058939596638083,594.2740490003489,None,None,None,right,4.0880371001549065,591.0802464000881,None,3.0057517597451806,3.205751759745181,,,L,2021_May_19_2300,InterleavedStaircase,2020.2.10,60.006324700811284,
decanterBedroom,noCokeStudio,7,0,1,1,1,40,0,40,0,,,,,,,16,1,7,10.563825757575762,11,1,2,0,595.8523857002147,598.3544739000499,0.006582560017704964,0.506582560017705,598.5526144001633,None,None,None,left,4.030501100234687,595.3591234004125,None,3.0072455601766706,3.2072455601766707,,,L,2021_May_19_2300,InterleavedStaircase,2020.2.10,60.006324700811284,
decanterBedroom,noCokeStudio,7,0,1,1,1,41,0,41,0,,,,,,,9,1,7,5.757051282051281,6,1,1,1,600.0648567001335,602.5677555003203,0.006972360424697399,0.5069723604246974,602.7651348002255,None,None,None,right,4.196398099884391,599.5719006001018,None,3.0079984604381025,3.2079984604381027,,,L,2021_May_19_2300,InterleavedStaircase,2020.2.10,60.006324700811284,
decanterBedroom,noCokeStudio,7,0,1,1,1,42,0,42,0,,,,,,,10,-1,7,5.647676282051281,6,1,1,1,604.4462411999702,606.9474667999893,0.005366460420191288,0.5053664604201913,607.1458462001756,None,None,None,left,4.398167199920863,603.9532912001014,None,3.004793160595,3.204793160595,,,L,2021_May_19_2300,InterleavedStaircase,2020.2.10,60.006324700811284,
decanterBedroom,noCokeStudio,7,0,1,1,1,43,0,43,0,,,,,,,11,1,7,5.538301282051281,6,1,1,0,609.0411605001427,611.5437169000506,0.006489460356533527,0.5064894603565335,611.7431051000021,614.2416142001748,614.2416142001748,None,left,6.728544500190765,608.5486038001254,None,3.007062760181725,3.207062760181725,,,L,2021_May_19_2300,InterleavedStaircase,2020.2.10,60.006324700811284,
decanterBedroom,noCokeStudio,7,0,1,1,1,44,0,44,0,,,,,,,12,-1,7,5.847124811463045,6,1,1,1,615.9650113000534,618.4713721000589,0.007201160304248333,0.5072011603042483,618.6692040003836,None,None,None,left,4.543099799659103,615.4729212000966,None,3.011609259992838,3.211609259992838,,,L,2021_May_19_2300,InterleavedStaircase,2020.2.10,60.006324700811284,
decanterBedroom,noCokeStudio,7,0,1,1,1,45,0,45,0,,,,,,,10,1,7,19.99097222222222,20,0,2,0,620.697872500401,623.2008045003749,0.008447560481727123,0.5084475604817271,623.4011373003013,None,None,None,left,4.18459999980405,620.2038369001821,None,3.011125460267067,3.211125460267067,,,L,2021_May_19_2300,InterleavedStaircase,2020.2.10,60.006324700811284,
decanterBedroom,noCokeStudio,7,0,1,1,1,46,0,46,0,,,,,,,13,-1,7,5.749902589240823,6,1,1,1,625.0718189002946,627.5805113003589,0.013872319832444191,0.5138723198324442,627.7661345000379,None,None,None,left,4.15981510002166,624.579880299978,None,3.007725919596851,3.207725919596851,,,L,2021_May_19_2300,InterleavedStaircase,2020.2.10,60.006324700811284,
decanterBedroom,noCokeStudio,7,0,1,1,1,47,0,47,0,,,,,,,14,-1,7,5.6526803670186005,6,1,1,1,629.4249655003659,631.9270383003168,0.006471560336649418,0.5064715603366494,632.126347400248,None,None,None,left,4.187605599872768,628.9319439004175,None,3.007213660515845,3.207213660515845,,,L,2021_May_19_2300,InterleavedStaircase,2020.2.10,60.006324700811284,
decanterBedroom,noCokeStudio,7,0,1,1,1,48,0,48,0,,,,,,,15,1,7,5.555458144796378,6,1,1,1,633.8040748001076,636.3067115000449,0.007196560502052307,0.5071965605020523,636.5051141004078,None,None,None,right,4.51813879981637,633.3105217004195,None,3.0086702601984143,3.2086702601984145,,,L,2021_May_19_2300,InterleavedStaircase,2020.2.10,60.006324700811284,
decanterBedroom,noCokeStudio,7,0,1,1,1,49,0,49,0,,,,,,,16,-1,7,5.458235922574156,5,1,1,1,638.517793700099,641.0195278003812,0.006120860110968351,0.5061208601109684,641.2180888000876,None,None,None,left,4.647371800150722,638.0242317002267,None,3.006589360535145,3.206589360535145,,,L,2021_May_19_2300,InterleavedStaircase,2020.2.10,60.006324700811284,
decanterBedroom,noCokeStudio,7,0,1,1,1,50,0,50,0,,,,,,,11,1,7,20.08819444444444,20,0,2,0,643.3475650004111,645.8488688003272,0.005718960426747799,0.5057189604267478,646.048983800225,None,None,None,left,4.530745700001717,642.8555355002172,None,3.005549560301006,3.205549560301006,,,L,2021_May_19_2300,InterleavedStaircase,2020.2.10,60.006324700811284,
decanterBedroom,noCokeStudio,7,0,1,1,1,51,0,51,0,,,,,,,12,1,7,20.18541666666666,20,0,2,0,648.0612703002989,650.5617248001508,0.004992260131984949,0.504992260131985,650.7596703004092,None,None,None,left,5.102083400357515,647.56834420003,None,3.0038792598061264,3.2038792598061265,,,L,2021_May_19_2300,InterleavedStaircase,2020.2.10,60.006324700811284,
decanterBedroom,noCokeStudio,7,0,1,1,1,52,0,52,0,,,,,,,13,-1,7,20.282638888888883,20,0,2,0,653.3667798000388,655.8740175003186,0.010948220267891884,0.5109482202678919,656.060010000132,None,None,None,right,4.667808199767023,652.8745822003111,None,3.002648620400578,3.202648620400578,,,L,2021_May_19_2300,InterleavedStaircase,2020.2.10,60.006324700811284,
decanterBedroom,noCokeStudio,7,0,1,1,1,53,0,53,0,,,,,,,9,-1,7,21,21,0,1,0,658.2209654999897,660.7199609000236,0.003394260536879301,0.5033942605368793,660.9178611002862,None,None,None,right,5.276480800006539,657.7278811000288,None,3.0007285601459444,3.2007285601459445,,,L,2021_May_19_2300,InterleavedStaircase,2020.2.10,60.006324700811284,
decanterBedroom,noCokeStudio,7,0,1,1,1,54,0,54,0,,,,,,,10,-1,7,21,21,0,1,1,663.7382665001787,666.2488235002384,0.01518989959731698,0.515189899597317,666.434341000393,None,None,None,left,4.565158499870449,663.2446705000475,None,3.0114020998589694,3.2114020998589696,,,L,2021_May_19_2300,InterleavedStaircase,2020.2.10,60.006324700811284,
decanterBedroom,noCokeStudio,7,0,1,1,1,55,0,55,0,,,,,,,11,1,7,20.723684210526315,21,0,1,0,668.4957798002288,670.9949037004262,0.0028306604363024235,0.5028306604363024,671.1939007001929,None,None,None,left,4.678163500037044,668.003567900043,None,2.9999481602571905,3.1999481602571906,,,L,2021_May_19_2300,InterleavedStaircase,2020.2.10,60.006324700811284,
decanterBedroom,noCokeStudio,7,0,1,1,1,56,0,56,0,,,,,,,14,-1,7,20.37013888888888,20,0,2,0,673.3575695999898,675.8575519002043,0.0037960605695843697,0.5037960605695844,676.0585143002681,None,None,None,right,4.231609900016338,672.8651694003493,None,3.0015392606146634,3.2015392606146635,,,L,2021_May_19_2300,InterleavedStaircase,2020.2.10,60.006324700811284,
decanterBedroom,noCokeStudio,7,0,1,1,1,57,0,57,0,,,,,,,15,-1,7,20.45763888888888,20,0,2,0,677.7823686003685,680.2872661002912,0.009028960019350052,0.50902896001935,680.4885238003917,None,None,None,right,5.552479300182313,677.2898169001564,None,3.012145860120654,3.2121458601206543,,,L,2021_May_19_2300,InterleavedStaircase,2020.2.10,60.006324700811284,
decanterBedroom,noCokeStudio,7,0,1,1,1,58,0,58,0,,,,,,,12,-1,7,20.811184210526314,21,0,1,0,683.7395733003505,686.2490236000158,0.000611480325460434,0.5006114803254604,686.4488662001677,None,None,None,right,4.464104299899191,683.2454052004032,None,3.010858580470085,3.2108585804700853,,,L,2021_May_19_2300,InterleavedStaircase,2020.2.10,60.006324700811284,
decanterBedroom,noCokeStudio,7,0,1,1,1,59,0,59,0,,,,,,,13,1,7,20.898684210526312,21,0,1,0,688.4924755003303,690.995136400219,0.009563419967889786,0.5095634199678898,691.1813293001615,None,None,None,left,4.238462399691343,687.9984491001815,None,2.999198520090431,3.199198520090431,,,L,2021_May_19_2300,InterleavedStaircase,2020.2.10,60.006324700811284,
decanterBedroom,noCokeStudio,7,0,1,1,1,60,0,60,0,,,,,,,16,1,7,20.54513888888888,21,0,2,0,692.9213794004172,695.4248724002391,0.007640260737389326,0.5076402607373893,695.6256405999884,None,None,None,left,4.099321500398219,692.4284928003326,None,3.009478060528636,3.209478060528636,,,L,2021_May_19_2300,InterleavedStaircase,2020.2.10,60.006324700811284,
decanterBedroom,noCokeStudio,7,0,1,1,1,61,0,61,0,,,,,,,14,-1,7,20.98618421052631,21,0,1,0,697.2116424003616,699.7213438004255,0.014981620013713837,0.5149816200137138,699.9074253002182,None,None,None,right,4.111627200152725,696.7175384000875,None,3.010926620103419,3.210926620103419,,,L,2021_May_19_2300,InterleavedStaircase,2020.2.10,60.006324700811284,
decanterBedroom,noCokeStudio,7,0,1,1,1,62,0,62,0,,,,,,,15,-1,7,21,21,0,1,0,701.5142693002708,704.0178131000139,0.008202660363167524,0.5082026603631675,704.216858800035,None,None,None,right,4.1337171997874975,701.0208888002671,None,3.010585460346192,3.2105854603461923,,,L,2021_May_19_2300,InterleavedStaircase,2020.2.10,60.006324700811284,
decanterBedroom,noCokeStudio,7,0,1,1,1,63,0,63,0,,,,,,,16,1,7,21,21,0,1,0,705.8292386000976,708.3309612004086,0.00549136009067297,0.505491360090673,708.531574100256,711.0287821004167,711.0287821004167,None,left,6.207679100334644,705.3372769001871,None,3.005007860250771,3.2050078602507712,,,L,2021_May_19_2300,InterleavedStaircase,2020.2.10,60.006324700811284,
decanterBedroom,noCokeStudio,7,0,1,1,1,,,,,,,,,,,,,,,,,,,,,,,,,,,,,,,,,,,L,2021_May_19_2300,InterleavedStaircase,2020.2.10,60.006324700811284,
,,,,,,,,,,,,,,,,,,,,,,,,,,,,,,,,,,,,,,,711.562002800405,None,,,,,,
